SubNo  trial   choice  reward  reward_cent exploit exp_par prob    prob_cent   action_value    action_value_cent   PE  PE_cent rt prob1 prob2 prob3 prob4 av1 av2 av3 av4
1002	1	1	90	19.34	1	0.025313	0.25	-0.029672	0	-49.784	90	69.108	2538	0.25	0.25	0.25	0.25	0	0	0	0
1002	2	2	20	-50.66	0	0.025313	0.23825	-0.041417	0	-49.784	20	-0.89233	1206	0.28524	0.23825	0.23825	0.23825	7.11	0	0	0
1002	3	3	89	18.34	0	0.025313	0.23596	-0.043711	0	-49.784	89	68.108	612	0.28249	0.24559	0.23596	0.23596	7.11	1.58	0	0
1002	4	4	88	17.34	0	0.025313	0.22559	-0.05408	0	-49.784	88	67.108	413	0.27008	0.2348	0.26954	0.22559	7.11	1.58	7.031	0
1002	5	1	89	18.34	1	0.025313	0.25884	-0.020832	7.11	-42.674	81.89	60.998	434	0.25884	0.22503	0.25832	0.25781	7.11	1.58	7.031	6.952
1002	6	2	20	-50.66	0	0.025313	0.21512	-0.06455	1.58	-48.204	18.42	-2.4723	372	0.29147	0.21512	0.24695	0.24646	13.579	1.58	7.031	6.952
1002	7	3	79	8.34	0	0.025313	0.24497	-0.034699	7.031	-42.753	71.969	51.077	2166	0.28914	0.22141	0.24497	0.24448	13.579	3.0352	7.031	6.952
1002	8	4	77	6.34	0	0.025313	0.23555	-0.04412	6.952	-42.832	70.048	49.156	441	0.27857	0.21332	0.27256	0.23555	13.579	3.0352	12.717	6.952
1002	9	1	75	4.34	1	0.025313	0.26905	-0.010627	13.579	-36.205	61.421	40.528	1396	0.26905	0.20602	0.26323	0.2617	13.579	3.0352	12.717	12.486
1002	10	2	26	-44.66	0	0.025313	0.19902	-0.080648	3.0352	-46.749	22.965	2.0725	252	0.29387	0.19902	0.25429	0.25281	18.432	3.0352	12.717	12.486
1002	11	3	76	5.34	0	0.025313	0.25194	-0.027736	12.717	-37.068	63.283	42.391	278	0.29115	0.20645	0.25194	0.25047	18.432	4.8494	12.717	12.486
1002	12	1	74	3.34	1	0.025313	0.28158	0.0019076	18.432	-31.352	55.568	34.676	295	0.28158	0.19966	0.27652	0.24224	18.432	4.8494	17.716	12.486
1002	13	4	72	1.34	0	0.025313	0.23448	-0.045196	12.486	-37.298	59.514	38.622	315	0.30459	0.19326	0.26767	0.23448	22.822	4.8494	17.716	12.486
1002	14	1	72	1.34	1	0.025313	0.29583	0.016155	22.822	-26.963	49.178	28.286	355	0.29583	0.1877	0.25996	0.25651	22.822	4.8494	17.716	17.188
1002	15	2	24	-46.66	0	0.025313	0.18213	-0.097538	4.8494	-44.935	19.151	-1.7418	281	0.31672	0.18213	0.25225	0.2489	26.707	4.8494	17.716	17.188
1002	16	3	71	0.34	0	0.025313	0.25047	-0.029201	17.716	-32.068	53.284	32.392	275	0.31448	0.18791	0.25047	0.24714	26.707	6.3623	17.716	17.188
1002	17	1	73	2.34	1	0.025313	0.30587	0.026194	26.707	-23.077	46.293	25.401	1430	0.30587	0.18276	0.271	0.24037	26.707	6.3623	21.926	17.188
1002	18	4	72	1.34	0	0.025313	0.23345	-0.046225	17.188	-32.597	54.812	33.92	1103	0.32586	0.1775	0.26319	0.23345	30.364	6.3623	21.926	17.188
1002	19	1	74	3.34	1	0.025313	0.31728	0.037613	30.364	-19.42	43.636	22.744	265	0.31728	0.17282	0.25626	0.25363	30.364	6.3623	21.926	21.518
1002	20	3	75	4.34	0	0.025313	0.24906	-0.030614	21.926	-27.859	53.074	32.182	554	0.33648	0.16796	0.24906	0.2465	33.811	6.3623	21.926	21.518
1002	21	3	74	3.34	0	0.025313	0.26943	-0.010241	26.118	-23.666	47.882	26.989	581	0.32735	0.16341	0.26943	0.23981	33.811	6.3623	26.118	21.518
1002	22	1	76	5.34	1	0.025313	0.31872	0.039051	33.811	-15.973	42.189	21.296	333	0.31872	0.1591	0.28869	0.23349	33.811	6.3623	29.901	21.518
1002	23	4	79	8.34	0	0.025313	0.22712	-0.052553	21.518	-28.266	57.482	36.59	1658	0.33731	0.15476	0.28081	0.22712	37.144	6.3623	29.901	21.518
1002	24	4	78	7.34	0	0.025313	0.24793	-0.031746	26.059	-23.725	51.941	31.049	715	0.32823	0.15059	0.27325	0.24793	37.144	6.3623	29.901	26.059
1002	25	4	76	5.34	0	0.025313	0.2678	-0.011877	30.162	-19.622	45.838	24.945	520	0.31956	0.14661	0.26603	0.2678	37.144	6.3623	29.901	30.162
1002	26	1	74	3.34	1	0.025313	0.31155	0.031881	37.144	-12.64	36.856	15.964	240	0.31155	0.14294	0.25936	0.28615	37.144	6.3623	29.901	33.783
1002	27	3	76	5.34	0	0.025313	0.25333	-0.026345	29.901	-19.883	46.099	25.207	888	0.32758	0.13961	0.25333	0.27949	40.056	6.3623	29.901	33.783
1002	28	2	20	-50.66	0	0.025313	0.13628	-0.1434	6.3623	-43.422	13.638	-7.2547	280	0.31975	0.13628	0.27116	0.27281	40.056	6.3623	33.543	33.783
1002	29	4	81	10.34	0	0.025313	0.27179	-0.0078834	33.783	-16.001	47.217	26.324	298	0.31855	0.13952	0.27014	0.27179	40.056	7.4397	33.543	33.783
1002	30	4	78	7.34	0	0.025313	0.29087	0.011201	37.514	-12.271	40.486	19.594	220	0.31021	0.13586	0.26306	0.29087	40.056	7.4397	33.543	37.514
1002	31	1	77	6.34	0	0.025313	0.30278	0.023107	40.056	-9.7284	36.944	16.052	250	0.30278	0.13261	0.25676	0.30785	40.056	7.4397	33.543	40.712
1002	32	3	78	7.34	0	0.025313	0.25094	-0.028736	33.543	-16.241	44.457	23.565	1342	0.3186	0.1296	0.25094	0.30087	42.974	7.4397	33.543	40.712
1002	33	4	82	11.34	0	0.025313	0.29401	0.014335	40.712	-9.0721	41.288	20.396	413	0.31133	0.12665	0.26801	0.29401	42.974	7.4397	37.055	40.712
1002	34	4	82	11.34	1	0.025313	0.31143	0.031759	43.974	-5.8103	38.026	17.134	326	0.30365	0.12352	0.2614	0.31143	42.974	7.4397	37.055	43.974
1002	35	4	76	5.34	1	0.025313	0.32797	0.048294	46.978	-2.8063	29.022	8.1298	244	0.29636	0.12055	0.25512	0.32797	42.974	7.4397	37.055	46.978
1002	36	1	74	3.34	0	0.025313	0.29066	0.010991	42.974	-6.8098	31.026	10.133	377	0.29066	0.11824	0.25022	0.34088	42.974	7.4397	37.055	49.271
1002	37	2	33	-37.66	0	0.025313	0.11608	-0.16359	7.4397	-42.344	25.56	4.668	284	0.30362	0.11608	0.24565	0.33466	45.425	7.4397	37.055	49.271
1002	38	3	76	5.34	0	0.025313	0.24416	-0.035511	37.055	-12.729	38.945	18.053	257	0.30178	0.12143	0.24416	0.33263	45.425	9.459	37.055	49.271
1002	39	4	75	4.34	1	0.025313	0.32618	0.04651	49.271	-0.51349	25.729	4.837	753	0.29593	0.11907	0.25882	0.32618	45.425	9.459	40.132	49.271
1002	40	1	76	5.34	0	0.025313	0.29092	0.011247	45.425	-4.3587	30.575	9.6823	274	0.29092	0.11706	0.25444	0.33759	45.425	9.459	40.132	51.303
1002	41	1	77	6.34	0	0.025313	0.30369	0.024019	47.841	-1.9433	29.159	8.2669	282	0.30369	0.11495	0.24985	0.33151	47.841	9.459	40.132	51.303
1002	42	1	78	7.34	0	0.025313	0.31616	0.036489	50.144	0.36027	27.856	6.9633	223	0.31616	0.11289	0.24538	0.32557	50.144	9.459	40.132	51.303
1002	43	1	79	8.34	1	0.025313	0.32832	0.048653	52.345	2.5609	26.655	5.7627	216	0.32832	0.11088	0.24101	0.31978	52.345	9.459	40.132	51.303
1002	44	1	76	5.34	1	0.025313	0.34019	0.060513	54.451	4.6666	21.549	0.6569	305	0.34019	0.10892	0.23676	0.31413	54.451	9.459	40.132	51.303
1002	45	1	71	0.34	1	0.025313	0.34992	0.070251	56.153	6.369	14.847	-6.0455	313	0.34992	0.10731	0.23326	0.3095	56.153	9.459	40.132	51.303
1002	46	4	72	1.34	0	0.025313	0.30627	0.026596	51.303	1.5191	20.697	-0.19561	220	0.35671	0.1062	0.23083	0.30627	57.326	9.459	40.132	51.303
1002	47	3	65	-5.66	0	0.025313	0.22788	-0.051791	40.132	-9.6524	24.868	3.9759	581	0.35215	0.10484	0.22788	0.31513	57.326	9.459	40.132	52.938
1002	48	4	63	-7.66	0	0.025313	0.31151	0.03184	52.938	3.1542	10.062	-10.831	239	0.3481	0.10363	0.23675	0.31151	57.326	9.459	42.096	52.938
1002	49	1	67	-3.66	1	0.025313	0.34591	0.066243	57.326	7.5419	9.6739	-11.218	283	0.34591	0.10298	0.23526	0.31584	57.326	9.459	42.096	53.733
1002	50	1	65	-5.66	1	0.025313	0.3503	0.070633	58.09	8.3062	6.9097	-13.983	288	0.3503	0.10229	0.23368	0.31372	58.09	9.459	42.096	53.733
1002	51	2	50	-20.66	0	0.025313	0.10179	-0.17788	9.459	-40.325	40.541	19.649	696	0.35346	0.10179	0.23255	0.3122	58.636	9.459	42.096	53.733
1002	52	4	60	-10.66	0	0.025313	0.30954	0.02987	53.733	3.9491	6.2668	-14.626	2103	0.35044	0.10945	0.23057	0.30954	58.636	12.662	42.096	53.733
1002	53	1	67	-3.66	1	0.025313	0.34908	0.069409	58.636	8.8521	8.3638	-12.529	340	0.34908	0.10902	0.22967	0.31223	58.636	12.662	42.096	54.228
1002	54	2	53	-17.66	0	0.025313	0.10839	-0.17129	12.662	-37.122	40.338	19.446	274	0.35289	0.10839	0.22832	0.3104	59.297	12.662	42.096	54.228
1002	55	1	69	-1.66	1	0.025313	0.34971	0.070034	59.297	9.5128	9.7031	-11.189	227	0.34971	0.11643	0.22626	0.3076	59.297	15.848	42.096	54.228
1002	56	1	76	5.34	1	0.025313	0.35413	0.07446	60.063	10.279	15.937	-4.9558	278	0.35413	0.11564	0.22472	0.3055	60.063	15.848	42.096	54.228
1002	57	1	73	2.34	1	0.025313	0.36145	0.081782	61.322	11.538	11.678	-9.2148	225	0.36145	0.11433	0.22218	0.30204	61.322	15.848	42.096	54.228
1002	58	4	68	-2.66	0	0.025313	0.29948	0.019812	54.228	4.4442	13.772	-7.1206	243	0.36686	0.11336	0.2203	0.29948	62.245	15.848	42.096	54.228
1002	59	2	56	-14.66	0	0.025313	0.11242	-0.16725	15.848	-33.936	40.152	19.259	857	0.36382	0.11242	0.21847	0.30529	62.245	15.848	42.096	55.316
1002	60	1	72	1.34	1	0.025313	0.36043	0.080759	62.245	12.461	9.755	-11.137	298	0.36043	0.12068	0.21643	0.30245	62.245	19.02	42.096	55.316
1002	61	3	72	1.34	0	0.025313	0.21491	-0.064763	42.096	-7.6878	29.904	9.0113	203	0.36494	0.11983	0.21491	0.30032	63.016	19.02	42.096	55.316
1002	62	3	72	1.34	0	0.025313	0.22517	-0.054502	44.459	-5.3254	27.541	6.6489	244	0.36017	0.11827	0.22517	0.29639	63.016	19.02	44.459	55.316
1002	63	3	76	5.34	0	0.025313	0.23492	-0.044748	46.635	-3.1496	29.365	8.4732	310	0.35564	0.11678	0.23492	0.29266	63.016	19.02	46.635	55.316
1002	64	1	81	10.34	1	0.025313	0.35065	0.070982	63.016	13.232	17.984	-2.908	324	0.35065	0.11514	0.24564	0.28856	63.016	19.02	48.954	55.316
1002	65	1	80	9.34	1	0.025313	0.35889	0.079214	64.436	14.652	15.564	-5.3288	256	0.35889	0.11368	0.24253	0.2849	64.436	19.02	48.954	55.316
1002	66	1	78	7.34	1	0.025313	0.36608	0.086406	65.666	15.882	12.334	-8.5583	994	0.36608	0.11241	0.23981	0.28171	65.666	19.02	48.954	55.316
1002	67	4	81	10.34	0	0.025313	0.27916	-0.00051628	55.316	5.5321	25.684	4.7914	249	0.37182	0.11139	0.23763	0.27916	66.64	19.02	48.954	55.316
1002	68	4	78	7.34	0	0.025313	0.28961	0.009935	57.345	7.5612	20.655	-0.23762	259	0.36643	0.10977	0.23419	0.28961	66.64	19.02	48.954	57.345
1002	69	1	83	12.34	1	0.025313	0.36201	0.082337	66.64	16.856	16.36	-4.5327	1700	0.36201	0.10845	0.23136	0.29818	66.64	19.02	48.954	58.977
1002	70	1	89	18.34	1	0.025313	0.3696	0.089926	67.933	18.149	21.067	0.17489	281	0.3696	0.10716	0.22861	0.29463	67.933	19.02	48.954	58.977
1002	71	1	89	18.34	1	0.025313	0.37947	0.099794	69.597	19.813	19.403	-1.4894	233	0.37947	0.10548	0.22503	0.29002	69.597	19.02	48.954	58.977
1002	72	1	92	21.34	1	0.025313	0.38864	0.10897	71.13	21.346	20.87	-0.022267	333	0.38864	0.10392	0.2217	0.28573	71.13	19.02	48.954	58.977
1002	73	1	93	22.34	1	0.025313	0.3986	0.11893	72.779	22.995	20.221	-0.67101	445	0.3986	0.10223	0.21809	0.28107	72.779	19.02	48.954	58.977
1002	74	4	88	17.34	0	0.025313	0.27653	-0.0031468	58.977	9.1929	29.023	8.1306	1031	0.40834	0.10057	0.21456	0.27653	74.376	19.02	48.954	58.977
1002	75	1	87	16.34	1	0.025313	0.4017	0.12203	74.376	24.592	12.624	-8.2685	1662	0.4017	0.09894	0.21108	0.28829	74.376	19.02	48.954	61.27
1002	76	2	63	-7.66	0	0.025313	0.097934	-0.18174	19.02	-30.764	43.98	23.087	247	0.40778	0.097934	0.20893	0.28535	75.373	19.02	48.954	61.27
1002	77	3	85	14.34	0	0.025313	0.20707	-0.072606	48.954	-0.82973	36.046	15.153	208	0.40414	0.10598	0.20707	0.28281	75.373	22.495	48.954	61.27
1002	78	1	84	13.34	1	0.025313	0.39798	0.11831	75.373	25.589	8.6265	-12.266	285	0.39798	0.10437	0.21915	0.2785	75.373	22.495	51.802	61.27
1002	79	4	84	13.34	0	0.025313	0.27658	-0.0030888	61.27	11.486	22.73	1.8378	265	0.40212	0.10365	0.21764	0.27658	76.055	22.495	51.802	61.27
1002	80	1	89	18.34	1	0.025313	0.39702	0.11735	76.055	26.271	12.945	-7.9473	247	0.39702	0.10233	0.21488	0.28577	76.055	22.495	51.802	63.066
1002	81	1	88	17.34	1	0.025313	0.40323	0.12356	77.078	27.293	10.922	-9.97	244	0.40323	0.10128	0.21267	0.28282	77.078	22.495	51.802	63.066
1002	82	4	86	15.34	0	0.025313	0.28033	0.00065684	63.066	13.281	22.934	2.0421	417	0.4085	0.10039	0.21079	0.28033	77.941	22.495	51.802	63.066
1002	83	1	86	15.34	1	0.025313	0.40319	0.12352	77.941	28.156	8.0595	-12.833	238	0.40319	0.099082	0.20805	0.28967	77.941	22.495	51.802	64.877
1002	84	3	84	13.34	0	0.025313	0.2067	-0.072975	51.802	2.0179	32.198	11.306	543	0.40708	0.098437	0.2067	0.28779	78.577	22.495	51.802	64.877
1002	85	1	86	15.34	1	0.025313	0.40156	0.12189	78.577	28.793	7.4228	-13.47	368	0.40156	0.097102	0.21745	0.28389	78.577	22.495	54.346	64.877
1002	86	1	85	14.34	1	0.025313	0.40513	0.12546	79.164	29.379	5.8364	-15.056	263	0.40513	0.096523	0.21616	0.28219	79.164	22.495	54.346	64.877
1002	87	4	79	8.34	0	0.025313	0.28086	0.0011839	64.877	15.093	14.123	-6.7697	707	0.40795	0.096066	0.21513	0.28086	79.625	22.495	54.346	64.877
1002	88	1	80	9.34	1	0.025313	0.40469	0.12502	79.625	29.841	0.37531	-20.517	219	0.40469	0.095299	0.21342	0.28659	79.625	22.495	54.346	65.993
1002	89	3	79	8.34	0	0.025313	0.21335	-0.06632	54.346	4.5615	24.654	3.762	1004	0.40487	0.09527	0.21335	0.28651	79.654	22.495	54.346	65.993
1002	90	1	77	6.34	1	0.025313	0.40055	0.12088	79.654	29.87	-2.6543	-23.547	225	0.40055	0.094254	0.22174	0.28345	79.654	22.495	56.293	65.993
1002	91	3	77	6.34	0	0.025313	0.22221	-0.057458	56.293	6.5092	20.707	-0.18572	238	0.39928	0.094454	0.22221	0.28405	79.445	22.495	56.293	65.993
1002	92	2	53	-17.66	0	0.025313	0.093575	-0.1861	22.495	-27.289	30.505	9.6128	290	0.39556	0.093575	0.22945	0.28141	79.445	22.495	57.929	65.993
1002	93	4	77	6.34	0	0.025313	0.27976	9.1756e-05	65.993	16.209	11.007	-9.8854	241	0.39325	0.098879	0.22811	0.27976	79.445	24.905	57.929	65.993
1002	94	1	79	8.34	1	0.025313	0.39081	0.11114	79.445	29.661	-0.44465	-21.337	209	0.39081	0.098267	0.2267	0.28422	79.445	24.905	57.929	66.863
1002	95	1	77	6.34	1	0.025313	0.3906	0.11093	79.41	29.625	-2.4095	-23.302	310	0.3906	0.098301	0.22678	0.28432	79.41	24.905	57.929	66.863
1002	96	1	74	3.34	1	0.025313	0.38946	0.10978	79.219	29.435	-5.2192	-26.111	225	0.38946	0.098486	0.2272	0.28485	79.219	24.905	57.929	66.863
1002	97	4	75	4.34	0	0.025313	0.28601	0.0063383	66.863	17.078	8.1374	-12.755	302	0.38698	0.098886	0.22813	0.28601	78.807	24.905	57.929	66.863
1002	98	3	72	1.34	0	0.025313	0.22706	-0.052611	57.929	8.1451	14.071	-6.8216	250	0.38517	0.098424	0.22706	0.28934	78.807	24.905	57.929	67.505
1002	99	2	51	-19.66	0	0.025313	0.097791	-0.18188	24.905	-24.879	26.095	5.2029	273	0.38269	0.097791	0.23204	0.28748	78.807	24.905	59.041	67.505
1002	100	1	71	0.34	1	0.025313	0.3807	0.10102	78.807	29.023	-7.8068	-28.699	279	0.3807	0.10249	0.23083	0.28598	78.807	26.966	59.041	67.505
1002	101	4	71	0.34	0	0.025313	0.28768	0.0080083	67.505	17.721	3.4945	-17.398	314	0.37702	0.1031	0.2322	0.28768	78.19	26.966	59.041	67.505
1002	102	1	72	1.34	1	0.025313	0.37626	0.096591	78.19	28.406	-6.1901	-27.082	224	0.37626	0.10289	0.23173	0.28911	78.19	26.966	59.041	67.782
1002	103	1	70	-0.66	1	0.025313	0.37336	0.093691	77.701	27.917	-7.7011	-28.593	255	0.37336	0.10337	0.23281	0.29046	77.701	26.966	59.041	67.782
1002	104	4	69	-1.66	0	0.025313	0.29213	0.012454	67.782	17.997	1.2184	-19.674	526	0.36977	0.10396	0.23414	0.29213	77.093	26.966	59.041	67.782
1002	105	3	71	0.34	0	0.025313	0.23398	-0.045695	59.041	9.2567	11.959	-8.9331	342	0.3695	0.10389	0.23398	0.29263	77.093	26.966	59.041	67.878
1002	106	1	70	-0.66	1	0.025313	0.36742	0.087751	77.093	27.309	-7.0927	-27.985	232	0.36742	0.10331	0.23829	0.29098	77.093	26.966	59.986	67.878
1002	107	3	75	4.34	0	0.025313	0.23953	-0.040142	59.986	10.201	15.014	-5.8779	210	0.36413	0.10384	0.23953	0.2925	76.532	26.966	59.986	67.878
1002	108	1	73	2.34	1	0.025313	0.36149	0.081821	76.532	26.748	-3.5324	-24.425	254	0.36149	0.10309	0.24504	0.29038	76.532	26.966	61.172	67.878
1002	109	3	71	0.34	0	0.025313	0.24567	-0.034005	61.172	11.388	9.8283	-11.064	217	0.35986	0.10335	0.24567	0.29112	76.253	26.966	61.172	67.878
1002	110	1	71	0.34	1	0.025313	0.35812	0.078446	76.253	26.469	-5.2533	-26.146	446	0.35812	0.10285	0.24933	0.2897	76.253	26.966	61.948	67.878
1002	111	4	65	-5.66	0	0.025313	0.29079	0.01112	67.878	18.094	-2.8778	-23.77	248	0.35571	0.10324	0.25026	0.29079	75.838	26.966	61.948	67.878
1002	112	2	50	-20.66	0	0.025313	0.10341	-0.17626	26.966	-22.818	23.034	2.1413	351	0.3563	0.10341	0.25068	0.28961	75.838	26.966	61.948	67.65
1002	113	1	65	-5.66	1	0.025313	0.35457	0.074901	75.838	26.054	-10.838	-31.731	220	0.35457	0.10776	0.24947	0.2882	75.838	28.786	61.948	67.65
1002	114	3	62	-8.66	0	0.025313	0.25138	-0.028295	61.948	12.164	0.051817	-20.841	354	0.34963	0.10859	0.25138	0.29041	74.982	28.786	61.948	67.65
1002	115	4	63	-7.66	0	0.025313	0.2904	0.01073	67.65	17.866	-4.6505	-25.543	835	0.34962	0.10858	0.2514	0.2904	74.982	28.786	61.952	67.65
1002	116	1	63	-7.66	1	0.025313	0.35056	0.07089	74.982	25.198	-11.982	-32.874	416	0.35056	0.10888	0.25207	0.28849	74.982	28.786	61.952	67.283
1002	117	2	56	-14.66	0	0.025313	0.10979	-0.16989	28.786	-20.998	27.214	6.3217	404	0.34513	0.10979	0.25418	0.2909	74.035	28.786	61.952	67.283
1002	118	3	60	-10.66	0	0.025313	0.25263	-0.02704	61.952	12.168	-1.9523	-22.845	360	0.34302	0.11522	0.25263	0.28913	74.035	30.936	61.952	67.283
1002	119	1	58	-12.66	1	0.025313	0.34336	0.063687	74.035	24.251	-16.035	-36.928	413	0.34336	0.11533	0.2519	0.28941	74.035	30.936	61.798	67.283
1002	120	2	56	-14.66	0	0.025313	0.1166	-0.16308	30.936	-18.848	25.064	4.1717	227	0.33617	0.1166	0.25466	0.29258	72.769	30.936	61.798	67.283
1002	121	4	57	-13.66	0	0.025313	0.29084	0.011169	67.283	17.499	-10.283	-31.175	242	0.33416	0.12186	0.25314	0.29084	72.769	32.916	61.798	67.283
1002	122	3	56	-14.66	0	0.025313	0.25465	-0.025026	61.798	12.014	-5.798	-26.69	239	0.33615	0.12258	0.25465	0.28662	72.769	32.916	61.798	66.471
1002	123	2	57	-13.66	0	0.025313	0.12294	-0.15673	32.916	-16.868	24.084	3.1917	224	0.33714	0.12294	0.25245	0.28746	72.769	32.916	61.34	66.471
1002	124	1	59	-11.66	1	0.025313	0.33511	0.055438	72.769	22.985	-13.769	-34.661	211	0.33511	0.12823	0.25093	0.28573	72.769	34.819	61.34	66.471
1002	125	4	60	-10.66	0	0.025313	0.28835	0.0086806	66.471	16.687	-6.4707	-27.363	246	0.329	0.12941	0.25323	0.28835	71.681	34.819	61.34	66.471
1002	126	1	62	-8.66	1	0.025313	0.33023	0.050555	71.681	21.897	-9.6809	-30.573	1366	0.33023	0.12989	0.25418	0.2857	71.681	34.819	61.34	65.96
1002	127	2	59	-11.66	0	0.025313	0.13072	-0.14895	34.819	-14.965	24.181	3.289	299	0.32596	0.13072	0.2558	0.28752	70.916	34.819	61.34	65.96
1002	128	3	64	-6.66	0	0.025313	0.25415	-0.025522	61.34	11.556	2.66	-18.232	880	0.32386	0.13631	0.25415	0.28567	70.916	36.729	61.34	65.96
1002	129	1	70	-0.66	1	0.025313	0.32342	0.043752	70.916	21.132	-0.91613	-21.808	319	0.32342	0.13613	0.25516	0.28529	70.916	36.729	61.55	65.96
1002	130	4	68	-2.66	0	0.025313	0.28546	0.0057852	65.96	16.175	2.0405	-18.852	294	0.32302	0.13621	0.25531	0.28546	70.844	36.729	61.55	65.96
1002	131	3	66	-4.66	0	0.025313	0.25501	-0.024659	61.55	11.766	4.4499	-16.442	385	0.32265	0.13605	0.25501	0.28629	70.844	36.729	61.55	66.121
1002	132	1	63	-7.66	1	0.025313	0.32191	0.042241	70.844	21.06	-7.8438	-28.736	281	0.32191	0.13574	0.25671	0.28564	70.844	36.729	61.902	66.121
1002	133	2	57	-13.66	0	0.025313	0.13642	-0.14325	36.729	-13.055	20.271	-0.62133	203	0.3185	0.13642	0.258	0.28708	70.224	36.729	61.902	66.121
1002	134	4	69	-1.66	0	0.025313	0.28547	0.0057943	66.121	16.337	2.8793	-18.013	257	0.31671	0.14127	0.25655	0.28547	70.224	38.33	61.902	66.121
1002	135	1	70	-0.66	1	0.025313	0.31619	0.036518	70.224	20.44	-0.2241	-21.116	755	0.31619	0.14104	0.25613	0.28664	70.224	38.33	61.902	66.348
1002	136	4	68	-2.66	0	0.025313	0.28668	0.0070108	66.348	16.564	1.6518	-19.241	337	0.31609	0.14106	0.25617	0.28668	70.206	38.33	61.902	66.348
1002	137	1	68	-2.66	1	0.025313	0.31579	0.036122	70.206	20.422	-2.2064	-23.099	212	0.31579	0.14093	0.25592	0.28736	70.206	38.33	61.902	66.479
1002	138	1	67	-3.66	1	0.025313	0.31484	0.035169	70.032	20.248	-3.0321	-23.924	222	0.31484	0.14112	0.25628	0.28776	70.032	38.33	61.902	66.479
1002	139	3	67	-3.66	0	0.025313	0.25677	-0.022904	61.902	12.118	5.0983	-15.794	262	0.31353	0.14139	0.25677	0.28831	69.793	38.33	61.902	66.479
1002	140	3	66	-4.66	0	0.025313	0.25872	-0.020954	62.304	12.52	3.6955	-17.197	1012	0.31271	0.14102	0.25872	0.28755	69.793	38.33	62.304	66.479
1002	141	4	67	-3.66	0	0.025313	0.287	0.0073281	66.479	16.695	0.52132	-20.371	802	0.31211	0.14075	0.26014	0.287	69.793	38.33	62.596	66.479
1002	142	4	71	0.34	0	0.025313	0.28721	0.0075415	66.52	16.736	4.4801	-16.412	465	0.31202	0.14071	0.26006	0.28721	69.793	38.33	62.596	66.52
1002	143	4	68	-2.66	0	0.025313	0.28905	0.0093791	66.874	17.09	1.1262	-19.766	335	0.31122	0.14034	0.25939	0.28905	69.793	38.33	62.596	66.874
1002	144	1	63	-7.66	1	0.025313	0.31101	0.03134	69.793	20.008	-6.7926	-27.685	352	0.31101	0.14025	0.25922	0.28951	69.793	38.33	62.596	66.963
1002	145	4	62	-8.66	0	0.025313	0.29073	0.011062	66.963	17.179	-4.9628	-25.855	356	0.30811	0.14084	0.26031	0.29073	69.256	38.33	62.596	66.963
1002	146	3	62	-8.66	0	0.025313	0.26106	-0.018609	62.596	12.812	-0.5964	-21.489	337	0.309	0.14125	0.26106	0.28869	69.256	38.33	62.596	66.571
1002	147	2	76	5.34	0	0.025313	0.14129	-0.13838	38.33	-11.454	37.67	16.777	258	0.30909	0.14129	0.26083	0.28878	69.256	38.33	62.549	66.571
1002	148	2	76	5.34	0	0.025313	0.15068	-0.12899	41.306	-8.4778	34.694	13.801	225	0.30571	0.15068	0.25798	0.28562	69.256	41.306	62.549	66.571
1002	149	2	78	7.34	0	0.025313	0.15978	-0.11989	44.047	-5.737	33.953	13.061	498	0.30244	0.15978	0.25522	0.28257	69.256	44.047	62.549	66.571
