SubNo  trial   choice  reward  reward_cent exploit exp_par prob    prob_cent   action_value    action_value_cent   PE  PE_cent rt prob1 prob2 prob3 prob4 av1 av2 av3 av4
1216	1	1	42	-11.463	1	0.044375	0.25	-0.039203	0	-52.12	42	40.629	578	0.25	0.25	0.25	0.25	0	0	0	0
1216	2	4	22	-31.463	0	0.044375	0.10338	-0.18582	0	-52.12	22	20.629	1103	0.68986	0.10338	0.10338	0.10338	42.774	0	0	0
1216	3	2	32	-21.463	0	0.044375	0.087907	-0.2013	0	-52.12	32	30.629	1633	0.58661	0.087907	0.087907	0.23758	42.774	0	0	22.405
1216	4	2	32	-21.463	0	0.044375	0.29043	0.0012234	32.589	-19.531	-0.58943	-1.9607	911	0.45636	0.29043	0.068388	0.18483	42.774	32.589	0	22.405
1216	5	3	44	-9.4631	0	0.044375	0.068914	-0.22029	0	-52.12	44	42.629	354	0.45987	0.28497	0.068914	0.18625	42.774	31.989	0	22.405
1216	6	1	48	-5.4631	0	0.044375	0.32059	0.031384	42.774	-9.3464	5.2264	3.8551	486	0.32059	0.19866	0.35091	0.12984	42.774	31.989	44.81	22.405
1216	7	1	47	-6.4631	1	0.044375	0.37405	0.084846	48.096	-4.0238	-1.0963	-2.4675	250	0.37405	0.18303	0.3233	0.11962	48.096	31.989	44.81	22.405
1216	8	4	29	-24.463	0	0.044375	0.12183	-0.16738	22.405	-29.715	6.5948	5.2235	270	0.36252	0.1864	0.32925	0.12183	46.98	31.989	44.81	22.405
1216	9	3	47	-6.4631	0	0.044375	0.31589	0.026688	44.81	-7.3096	2.1895	0.8183	524	0.34781	0.17883	0.31589	0.15746	46.98	31.989	44.81	29.121
1216	10	4	30	-23.463	0	0.044375	0.15246	-0.13675	29.121	-22.999	0.87853	-0.49271	279	0.33675	0.17314	0.33765	0.15246	46.98	31.989	47.04	29.121
1216	11	1	51	-2.4631	0	0.044375	0.33468	0.045478	46.98	-5.1403	4.0202	2.649	416	0.33468	0.17208	0.33558	0.15766	46.98	31.989	47.04	30.016
1216	12	2	44	-9.4631	0	0.044375	0.16132	-0.12788	31.989	-20.131	12.011	10.64	353	0.37627	0.16132	0.3146	0.1478	51.074	31.989	47.04	30.016
1216	13	3	41	-12.463	0	0.044375	0.28183	-0.0073726	47.04	-5.0797	-6.0403	-7.4116	299	0.33707	0.24869	0.28183	0.1324	51.074	44.221	47.04	30.016
1216	14	3	39	-14.463	0	0.044375	0.22999	-0.059215	40.889	-11.231	-1.8887	-3.26	651	0.36141	0.26664	0.22999	0.14196	51.074	44.221	40.889	30.016
1216	15	4	31	-22.463	0	0.044375	0.14468	-0.14452	30.016	-22.104	0.98382	-0.38741	381	0.36834	0.27176	0.21522	0.14468	51.074	44.221	38.965	30.016
1216	16	1	45	-8.4631	1	0.044375	0.36593	0.076727	51.074	-1.046	-6.0741	-7.4453	258	0.36593	0.26998	0.21382	0.15027	51.074	44.221	38.965	31.018
1216	17	3	36	-17.463	0	0.044375	0.23441	-0.054798	38.965	-13.155	-2.9652	-4.3364	477	0.30487	0.29598	0.23441	0.16475	44.888	44.221	38.965	31.018
1216	18	1	43	-10.463	1	0.044375	0.3141	0.0249	44.888	-7.2319	-1.8881	-3.2593	289	0.3141	0.30494	0.21122	0.16974	44.888	44.221	35.945	31.018
1216	19	4	30	-23.463	0	0.044375	0.17421	-0.11499	31.018	-21.102	-1.0181	-2.3894	217	0.29602	0.31298	0.21679	0.17421	42.965	44.221	35.945	31.018
1216	20	3	44	-9.4631	0	0.044375	0.2185	-0.070705	35.945	-16.175	8.0546	6.6834	428	0.29835	0.31546	0.2185	0.16769	42.965	44.221	35.945	29.981
1216	21	2	55	1.5369	1	0.044375	0.28784	-0.0013625	44.221	-7.8988	10.779	9.4075	363	0.27224	0.28784	0.28691	0.15301	42.965	44.221	44.148	29.981
1216	22	4	37	-16.463	0	0.044375	0.1296	-0.15961	29.981	-22.139	7.0188	5.6475	1666	0.23058	0.39681	0.24301	0.1296	42.965	55.199	44.148	29.981
1216	23	3	49	-4.4631	0	0.044375	0.2318	-0.057406	44.148	-7.9717	4.8516	3.4804	1866	0.21994	0.3785	0.2318	0.16976	42.965	55.199	44.148	37.129
1216	24	4	41	-12.463	0	0.044375	0.16063	-0.12857	37.129	-14.991	3.8707	2.4995	1735	0.20812	0.35815	0.2731	0.16063	42.965	55.199	49.089	37.129
1216	25	4	39	-14.463	0	0.044375	0.18564	-0.10356	41.071	-11.049	-2.0713	-3.4425	1855	0.20192	0.34748	0.26497	0.18564	42.965	55.199	49.089	41.071
1216	26	1	50	-3.4631	0	0.044375	0.20532	-0.083882	42.965	-9.1548	7.0348	5.6635	2102	0.20532	0.35334	0.26944	0.1719	42.965	55.199	49.089	38.962
1216	27	3	46	-7.4631	0	0.044375	0.25021	-0.038994	49.089	-3.0307	-3.0894	-4.4606	1704	0.26203	0.32812	0.25021	0.15964	50.13	55.199	49.089	38.962
1216	28	3	45	-8.4631	0	0.044375	0.22494	-0.064264	45.943	-6.177	-0.94309	-2.3143	901	0.27086	0.33918	0.22494	0.16502	50.13	55.199	45.943	38.962
1216	29	2	52	-1.4631	1	0.044375	0.3424	0.053194	55.199	3.0785	-3.1985	-4.5698	1205	0.27343	0.3424	0.2176	0.16658	50.13	55.199	44.983	38.962
1216	30	1	38	-15.463	0	0.044375	0.28664	-0.0025669	50.13	-1.9905	-12.13	-13.501	248	0.28664	0.31063	0.22811	0.17463	50.13	51.941	44.983	38.962
1216	31	4	37	-16.463	0	0.044375	0.19865	-0.090548	38.962	-13.158	-1.9618	-3.3331	1026	0.18848	0.35337	0.2595	0.19865	37.777	51.941	44.983	38.962
1216	32	3	37	-16.463	0	0.044375	0.26394	-0.025259	44.983	-7.1374	-7.9826	-9.3539	361	0.19171	0.35943	0.26394	0.18492	37.777	51.941	44.983	36.964
1216	33	2	57	3.5369	1	0.044375	0.39066	0.10145	51.941	-0.17898	5.0589	3.6877	245	0.20836	0.39066	0.2	0.20098	37.777	51.941	36.853	36.964
1216	34	1	57	3.5369	0	0.044375	0.18936	-0.099842	37.777	-14.343	19.223	17.852	373	0.18936	0.44623	0.18176	0.18265	37.777	57.093	36.853	36.964
1216	35	2	55	1.5369	0	0.044375	0.35357	0.064367	57.093	4.9731	-2.0932	-3.4644	472	0.35769	0.35357	0.14402	0.14473	57.354	57.093	36.853	36.964
1216	36	4	40	-13.463	0	0.044375	0.1495	-0.13971	36.964	-15.156	3.0361	1.6649	338	0.36948	0.33226	0.14876	0.1495	57.354	54.961	36.853	36.964
1216	37	1	55	1.5369	1	0.044375	0.36153	0.072327	57.354	5.234	-2.3541	-3.7253	229	0.36153	0.32511	0.14556	0.16779	57.354	54.961	36.853	40.056
1216	38	3	41	-12.463	0	0.044375	0.15108	-0.13813	36.853	-15.267	4.147	2.7758	230	0.33735	0.33742	0.15108	0.17415	54.957	54.961	36.853	40.056
1216	39	2	51	-2.4631	1	0.044375	0.32723	0.03803	54.961	2.8414	-3.9614	-5.3327	330	0.32716	0.32723	0.17671	0.16889	54.957	54.961	41.076	40.056
1216	40	4	49	-4.4631	0	0.044375	0.17846	-0.11074	40.056	-12.064	8.9441	7.5728	423	0.34571	0.2891	0.18673	0.17846	54.957	50.927	41.076	40.056
1216	41	1	57	3.5369	1	0.044375	0.31749	0.028282	54.957	2.8366	2.0434	0.67213	268	0.31749	0.2655	0.17148	0.24553	54.957	50.927	41.076	49.165
1216	42	3	36	-17.463	0	0.044375	0.16637	-0.12283	41.076	-11.044	-5.0764	-6.4476	756	0.33782	0.25759	0.16637	0.23821	57.038	50.927	41.076	49.165
1216	43	1	60	6.5369	1	0.044375	0.34975	0.060549	57.038	4.9176	2.9624	1.5911	217	0.34975	0.26668	0.13694	0.24662	57.038	50.927	35.906	49.165
1216	44	2	48	-5.4631	0	0.044375	0.25396	-0.035243	50.927	-1.193	-2.927	-4.2983	286	0.38078	0.25396	0.1304	0.23486	60.055	50.927	35.906	49.165
1216	45	1	55	1.5369	1	0.044375	0.39315	0.10394	60.055	7.9345	-5.0546	-6.4258	395	0.39315	0.22972	0.13464	0.24249	60.055	47.946	35.906	49.165
1216	46	4	52	-1.4631	0	0.044375	0.26366	-0.025548	49.165	-2.9553	2.8353	1.464	274	0.34017	0.24978	0.1464	0.26366	54.907	47.946	35.906	49.165
1216	47	1	56	2.5369	1	0.044375	0.32834	0.039135	54.907	2.7868	1.0931	-0.27813	438	0.32834	0.24109	0.1413	0.28927	54.907	47.946	35.906	52.052
1216	48	2	50	-3.4631	0	0.044375	0.23714	-0.052059	47.946	-4.174	2.0539	0.68268	309	0.33932	0.23714	0.13899	0.28454	56.02	47.946	35.906	52.052
1216	49	3	42	-11.463	0	0.044375	0.13586	-0.15335	35.906	-16.214	6.0935	4.7223	730	0.33167	0.25434	0.13586	0.27813	56.02	50.038	35.906	52.052
1216	50	4	51	-2.4631	0	0.044375	0.26664	-0.022562	52.052	-0.067838	-1.0522	-2.4235	426	0.31798	0.24384	0.17154	0.26664	56.02	50.038	42.112	52.052
1216	51	1	53	-0.46309	1	0.044375	0.32196	0.032761	56.02	3.9001	-3.0201	-4.3914	264	0.32196	0.2469	0.17369	0.25745	56.02	50.038	42.112	50.981
1216	52	2	58	4.5369	0	0.044375	0.25747	-0.031729	50.038	-2.0822	7.9622	6.5909	417	0.29292	0.25747	0.18113	0.26847	52.944	50.038	42.112	50.981
1216	53	2	62	8.5369	1	0.044375	0.33197	0.042762	58.147	6.0266	3.8533	2.4821	295	0.26353	0.33197	0.16296	0.24154	52.944	58.147	42.112	50.981
1216	54	2	60	6.5369	1	0.044375	0.37165	0.082442	62.071	9.9509	-2.071	-3.4422	219	0.24788	0.37165	0.15328	0.22719	52.944	62.071	42.112	50.981
1216	55	1	46	-7.4631	0	0.044375	0.25639	-0.03281	52.944	0.82431	-6.9444	-8.3156	169	0.25639	0.35006	0.15855	0.235	52.944	59.962	42.112	50.981
1216	56	4	47	-6.4631	0	0.044375	0.25243	-0.036773	50.981	-1.1394	-3.9806	-5.3519	220	0.20123	0.37603	0.17031	0.25243	45.872	59.962	42.112	50.981
1216	57	3	48	-5.4631	0	0.044375	0.17769	-0.11151	42.112	-10.008	5.8878	4.5165	1477	0.20996	0.39234	0.17769	0.22001	45.872	59.962	42.112	46.927
1216	58	2	69	15.537	1	0.044375	0.37218	0.082976	59.962	7.8418	9.0381	7.6669	245	0.19917	0.37218	0.21995	0.20871	45.872	59.962	48.108	46.927
1216	59	2	66	12.537	1	0.044375	0.47143	0.18222	69.166	17.046	-3.1665	-4.5377	733	0.16768	0.47143	0.18518	0.17572	45.872	69.166	48.108	46.927
1216	60	4	52	-1.4631	0	0.044375	0.1875	-0.1017	46.927	-5.1934	5.0733	3.7021	307	0.17893	0.43597	0.1976	0.1875	45.872	65.942	48.108	46.927
1216	61	3	49	-4.4631	0	0.044375	0.18849	-0.10071	48.108	-4.0116	0.89155	-0.47968	329	0.17068	0.41588	0.18849	0.22495	45.872	65.942	48.108	52.093
1216	62	1	51	-2.4631	0	0.044375	0.16937	-0.11983	45.872	-6.248	5.1279	3.7567	274	0.16937	0.41268	0.19473	0.22322	45.872	65.942	49.016	52.093
1216	63	2	69	15.537	1	0.044375	0.39522	0.10602	65.942	13.822	3.0583	1.6871	208	0.20451	0.39522	0.18649	0.21378	51.094	65.942	49.016	52.093
1216	64	2	66	12.537	1	0.044375	0.42869	0.13949	69.056	16.936	-3.0563	-4.4276	217	0.19319	0.42869	0.17617	0.20195	51.094	69.056	49.016	52.093
1216	65	2	63	9.5369	1	0.044375	0.39524	0.10604	65.944	13.824	-2.9437	-4.3149	239	0.2045	0.39524	0.18649	0.21377	51.094	65.944	49.016	52.093
1216	66	4	48	-5.4631	0	0.044375	0.22484	-0.064364	52.093	-0.026613	-4.0934	-5.4647	882	0.21509	0.36393	0.19614	0.22484	51.094	62.946	49.016	52.093
1216	67	4	45	-8.4631	0	0.044375	0.19424	-0.094961	47.925	-4.1955	-2.9246	-4.2958	277	0.22358	0.37829	0.20388	0.19424	51.094	62.946	49.016	47.925
1216	68	3	57	3.5369	0	0.044375	0.20891	-0.080295	49.016	-3.1036	7.9836	6.6123	239	0.22909	0.38762	0.20891	0.17439	51.094	62.946	49.016	44.946
1216	69	3	63	9.5369	0	0.044375	0.27474	-0.014466	57.147	5.027	5.8529	4.4817	199	0.21003	0.35536	0.27474	0.15988	51.094	62.946	57.147	44.946
1216	70	NaN	NaN	0	0	0.044375	0	0	0	0	0	0	0	0	0	0	0	0	0	0	0
1216	71	3	63	9.5369	1	0.044375	0.33044	0.041233	63.108	10.988	-0.10781	-1.479	254	0.1939	0.32807	0.33044	0.1476	51.094	62.946	63.108	44.946
1216	72	3	63	9.5369	1	0.044375	0.32936	0.040156	62.998	10.878	0.0019858	-1.3692	499	0.19421	0.3286	0.32936	0.14784	51.094	62.946	62.998	44.946
1216	73	1	56	2.5369	0	0.044375	0.1942	-0.095001	51.094	-1.0256	4.9055	3.5343	325	0.1942	0.32859	0.32938	0.14783	51.094	62.946	63	44.946
1216	74	1	52	-1.4631	0	0.044375	0.23125	-0.057949	56.09	3.9703	-4.0904	-5.4616	430	0.23125	0.31348	0.31423	0.14103	56.09	62.946	63	44.946
1216	75	2	67	13.537	0	0.044375	0.32621	0.037007	62.946	10.826	4.0542	2.683	324	0.20003	0.32621	0.327	0.14676	51.925	62.946	63	44.946
1216	76	3	65	11.537	0	0.044375	0.30687	0.017664	63	10.88	2	0.62873	244	0.18772	0.36769	0.30687	0.13773	51.925	67.075	63	44.946
1216	77	2	64	10.537	1	0.044375	0.35731	0.068111	67.075	14.955	-3.0747	-4.4459	278	0.18242	0.35731	0.32642	0.13384	51.925	67.075	65.037	44.946
1216	78	3	64	10.537	1	0.044375	0.34229	0.053083	65.037	12.917	-1.0368	-2.4081	271	0.19129	0.32607	0.34229	0.14035	51.925	63.943	65.037	44.946
1216	79	2	60	6.5369	0	0.044375	0.33126	0.042062	63.943	11.823	-3.9434	-5.3146	346	0.19434	0.33126	0.33182	0.14258	51.925	63.943	63.981	44.946
1216	80	3	67	13.537	1	0.044375	0.35079	0.061582	63.981	11.861	3.0191	1.6479	468	0.20545	0.29304	0.35079	0.15073	51.925	59.927	63.981	44.946
1216	81	1	56	2.5369	0	0.044375	0.19542	-0.09378	51.925	-0.19541	4.0753	2.7041	247	0.19542	0.27874	0.38245	0.14338	51.925	59.927	67.056	44.946
1216	82	3	61	7.5369	1	0.044375	0.36791	0.07871	67.056	14.936	-6.0556	-7.4268	257	0.22601	0.26815	0.36791	0.13793	56.075	59.927	67.056	44.946
1216	83	4	34	-19.463	0	0.044375	0.15125	-0.13795	44.946	-7.1739	-10.946	-12.317	314	0.24784	0.29405	0.30686	0.15125	56.075	59.927	60.888	44.946
1216	84	2	64	10.537	0	0.044375	0.31249	0.023288	59.927	7.8073	4.0726	2.7014	272	0.26339	0.31249	0.32611	0.098013	56.075	59.927	60.888	33.798
1216	85	3	57	3.5369	0	0.044375	0.30674	0.017534	60.888	8.7684	-3.8885	-5.2597	336	0.24774	0.35333	0.30674	0.092192	56.075	64.075	60.888	33.798
1216	86	3	56	2.5369	0	0.044375	0.27069	-0.018518	56.928	4.8083	-0.92838	-2.2996	260	0.26063	0.3717	0.27069	0.096986	56.075	64.075	56.928	33.798
1216	87	2	66	12.537	1	0.044375	0.37588	0.086678	64.075	11.955	1.925	0.55375	275	0.26356	0.37588	0.26248	0.098077	56.075	64.075	55.983	33.798
1216	88	2	66	12.537	1	0.044375	0.3965	0.1073	66.035	13.915	-0.035458	-1.4067	282	0.25485	0.3965	0.25381	0.094837	56.075	66.035	55.983	33.798
1216	89	2	67	13.537	1	0.044375	0.39612	0.10691	65.999	13.879	1.0007	-0.37058	291	0.25501	0.39612	0.25397	0.094897	56.075	65.999	55.983	33.798
1216	90	2	64	10.537	1	0.044375	0.40698	0.11778	67.018	14.898	-3.0184	-4.3897	313	0.25043	0.40698	0.2494	0.093189	56.075	67.018	55.983	33.798
1216	91	2	63	9.5369	1	0.044375	0.37452	0.085319	63.944	11.824	-0.9444	-2.3156	311	0.26413	0.37452	0.26305	0.09829	56.075	63.944	55.983	33.798
1216	92	2	60	6.5369	1	0.044375	0.36458	0.075376	62.983	10.863	-2.9826	-4.3538	252	0.26833	0.36458	0.26724	0.099853	56.075	62.983	55.983	33.798
1216	93	1	57	3.5369	0	0.044375	0.28126	-0.0079412	56.075	3.955	0.92493	-0.4463	305	0.28126	0.33396	0.28011	0.10466	56.075	59.945	55.983	33.798
1216	94	4	31	-22.463	0	0.044375	0.10342	-0.18578	33.798	-18.322	-2.7984	-4.1696	774	0.28979	0.33	0.27679	0.10342	57.017	59.945	55.983	33.798
1216	95	4	29	-24.463	0	0.044375	0.09227	-0.19693	30.948	-21.172	-1.9485	-3.3197	271	0.29339	0.3341	0.28023	0.09227	57.017	59.945	55.983	30.948
1216	96	1	53	-0.46309	0	0.044375	0.29569	0.00649	57.017	4.897	-4.017	-5.3883	328	0.29569	0.33672	0.28243	0.085155	57.017	59.945	55.983	28.964
1216	97	2	58	4.5369	1	0.044375	0.3541	0.0649	59.945	7.825	-1.9451	-3.3163	220	0.25933	0.3541	0.29701	0.089551	52.926	59.945	55.983	28.964
1216	98	3	50	-3.4631	0	0.044375	0.30613	0.016929	55.983	3.8628	-5.9829	-7.3541	234	0.2673	0.33427	0.30613	0.092301	52.926	57.964	55.983	28.964
1216	99	1	59	5.5369	0	0.044375	0.2882	-0.0010018	52.926	0.80594	6.074	4.7028	259	0.2882	0.36041	0.25187	0.099519	52.926	57.964	49.89	28.964
1216	100	2	60	6.5369	0	0.044375	0.33033	0.04113	57.964	5.8441	2.0358	0.6646	319	0.34759	0.33033	0.23086	0.091216	59.112	57.964	49.89	28.964
1216	101	2	60	6.5369	1	0.044375	0.35099	0.061791	60.037	7.9174	-0.037499	-1.4087	249	0.33687	0.35099	0.22374	0.088401	59.112	60.037	49.89	28.964
1216	102	1	57	3.5369	0	0.044375	0.33707	0.047866	59.112	6.9918	-2.1119	-3.4831	239	0.33707	0.35061	0.22387	0.088454	59.112	59.999	49.89	28.964
1216	103	2	67	13.537	1	0.044375	0.36171	0.072503	59.999	7.8792	7.0007	5.6295	391	0.31609	0.36171	0.23095	0.091254	56.961	59.999	49.89	28.964
1216	104	2	73	19.537	1	0.044375	0.43743	0.14823	67.129	15.009	5.871	4.4998	244	0.27859	0.43743	0.20355	0.080428	56.961	67.129	49.89	28.964
1216	105	2	74	20.537	1	0.044375	0.50343	0.21423	73.108	20.988	0.89186	-0.47938	245	0.2459	0.50343	0.17967	0.070992	56.961	73.108	49.89	28.964
1216	106	2	78	24.537	1	0.044375	0.51351	0.2243	74.016	21.896	3.9836	2.6123	292	0.24091	0.51351	0.17603	0.069552	56.961	74.016	49.89	28.964
1216	107	2	72	18.537	1	0.044375	0.55825	0.26905	78.073	25.953	-6.0734	-7.4446	405	0.21876	0.55825	0.15984	0.063155	56.961	78.073	49.89	28.964
1216	108	1	49	-4.4631	0	0.044375	0.2526	-0.036601	56.961	4.841	-7.9611	-9.3323	270	0.2526	0.4899	0.18457	0.072926	56.961	71.888	49.89	28.964
1216	109	3	54	0.53691	0	0.044375	0.19982	-0.089381	49.89	-2.2303	4.1102	2.739	366	0.19084	0.53039	0.19982	0.078953	48.853	71.888	49.89	28.964
1216	110	4	46	-7.4631	0	0.044375	0.075859	-0.21334	28.964	-23.156	17.036	15.665	265	0.18336	0.5096	0.23118	0.075859	48.853	71.888	54.076	28.964
1216	111	2	62	8.5369	1	0.044375	0.4684	0.1792	71.888	19.768	-9.8881	-11.259	207	0.16854	0.4684	0.21249	0.15057	48.853	71.888	54.076	46.314
1216	112	2	60	6.5369	1	0.044375	0.36044	0.07124	61.818	9.6978	-1.8179	-3.1891	354	0.20276	0.36044	0.25564	0.18115	48.853	61.818	54.076	46.314
1216	113	3	55	1.5369	0	0.044375	0.26312	-0.026082	54.076	1.9556	0.92429	-0.44694	292	0.2087	0.34173	0.26312	0.18645	48.853	59.967	54.076	46.314
1216	114	1	45	-8.4631	0	0.044375	0.20638	-0.082825	48.853	-3.2667	-3.8534	-5.2246	256	0.20638	0.33794	0.2713	0.18438	48.853	59.967	55.017	46.314
1216	115	2	54	0.53691	1	0.044375	0.34946	0.06026	59.967	7.8465	-5.9665	-7.3377	328	0.17931	0.34946	0.28055	0.19067	44.929	59.967	55.017	46.314
1216	116	4	44	-9.4631	0	0.044375	0.20784	-0.081364	46.314	-5.8063	-2.3138	-3.685	275	0.19545	0.2909	0.30581	0.20784	44.929	53.89	55.017	46.314
1216	117	3	50	-3.4631	1	0.044375	0.31226	0.023053	55.017	2.897	-5.017	-6.3883	278	0.19957	0.29702	0.31226	0.19115	44.929	53.89	55.017	43.957
1216	118	2	53	-0.46309	1	0.044375	0.31711	0.027909	53.89	1.77	-0.8901	-2.2613	260	0.21307	0.31711	0.26574	0.20408	44.929	53.89	49.908	43.957
1216	119	1	56	2.5369	0	0.044375	0.21577	-0.073438	44.929	-7.191	11.071	9.6997	250	0.21577	0.30847	0.26911	0.20666	44.929	52.984	49.908	43.957
1216	120	1	53	-0.46309	1	0.044375	0.31213	0.022924	56.204	4.0839	-3.2039	-4.5752	327	0.31213	0.27056	0.23604	0.18127	56.204	52.984	49.908	43.957
1216	121	3	50	-3.4631	0	0.044375	0.24641	-0.042794	49.908	-2.2125	0.092412	-1.2788	252	0.28191	0.28245	0.24641	0.18923	52.941	52.984	49.908	43.957
1216	122	2	50	-3.4631	1	0.044375	0.28216	-0.0070466	52.984	0.86354	-2.9836	-4.3548	445	0.28162	0.28216	0.24719	0.18903	52.941	52.984	50.002	43.957
1216	123	4	46	-7.4631	0	0.044375	0.19601	-0.093194	43.957	-8.1627	2.0426	0.67139	348	0.29202	0.25566	0.25631	0.19601	52.941	49.945	50.002	43.957
1216	124	4	50	-3.4631	0	0.044375	0.21097	-0.078237	46.038	-6.0824	3.9624	2.5911	483	0.28658	0.25091	0.25154	0.21097	52.941	49.945	50.002	46.038
1216	125	4	53	-0.46309	0	0.044375	0.24231	-0.046891	50.073	-2.0471	2.927	1.5558	274	0.2752	0.24094	0.24155	0.24231	52.941	49.945	50.002	50.073
1216	126	4	59	5.5369	1	0.044375	0.26742	-0.021786	53.054	0.93385	5.9461	4.5749	330	0.26608	0.23296	0.23354	0.26742	52.941	49.945	50.002	53.054
1216	127	4	58	4.5369	1	0.044375	0.32321	0.034009	59.11	6.9895	-1.1095	-2.4808	616	0.24582	0.21521	0.21576	0.32321	52.941	49.945	50.002	59.11
1216	128	4	59	5.5369	1	0.044375	0.31234	0.02314	57.98	5.8595	1.0204	-0.35079	284	0.24976	0.21867	0.21922	0.31234	52.941	49.945	50.002	57.98
1216	129	4	62	8.5369	1	0.044375	0.32233	0.033129	59.019	6.8987	2.9812	1.61	278	0.24614	0.21549	0.21604	0.32233	52.941	49.945	50.002	59.019
1216	130	4	67	13.537	1	0.044375	0.35244	0.063234	62.055	9.9349	4.9451	3.5739	281	0.2352	0.20592	0.20644	0.35244	52.941	49.945	50.002	62.055
1216	131	4	73	19.537	1	0.044375	0.40495	0.11575	67.091	14.971	5.9089	4.5377	306	0.21613	0.18922	0.1897	0.40495	52.941	49.945	50.002	67.091
1216	132	4	73	19.537	1	0.044375	0.47058	0.18137	73.109	20.989	-0.10884	-1.4801	371	0.19229	0.16835	0.16878	0.47058	52.941	49.945	50.002	73.109
1216	133	4	74	20.537	1	0.044375	0.46935	0.18015	72.998	20.878	1.002	-0.36923	470	0.19274	0.16874	0.16917	0.46935	52.941	49.945	50.002	72.998
1216	134	4	74	20.537	1	0.044375	0.48064	0.19144	74.018	21.898	-0.018457	-1.3897	568	0.18864	0.16515	0.16557	0.48064	52.941	49.945	50.002	74.018
1216	135	4	72	18.537	1	0.044375	0.48044	0.19123	74	21.88	-1.9997	-3.3709	371	0.18871	0.16522	0.16563	0.48044	52.941	49.945	50.002	74
1216	136	1	50	-3.4631	0	0.044375	0.19688	-0.09232	52.941	0.82092	-2.941	-4.3122	646	0.19688	0.17237	0.17281	0.45793	52.941	49.945	50.002	71.963
1216	137	2	44	-9.4631	0	0.044375	0.1767	-0.1125	49.945	-2.175	-5.945	-7.3163	237	0.17671	0.1767	0.17715	0.46944	49.946	49.945	50.002	71.963
1216	138	3	53	-0.46309	0	0.044375	0.18484	-0.10436	50.002	-2.1184	2.9983	1.6271	271	0.18439	0.14094	0.18484	0.48983	49.946	43.89	50.002	71.963
1216	139	4	75	21.537	1	0.044375	0.47703	0.18783	71.963	19.843	3.0368	1.6656	333	0.17957	0.13726	0.20614	0.47703	49.946	43.89	53.055	71.963
1216	140	4	74	20.537	1	0.044375	0.51133	0.22212	75.056	22.936	-1.0559	-2.4272	327	0.1678	0.12826	0.19262	0.51133	49.946	43.89	53.055	75.056
1216	141	4	73	19.537	1	0.044375	0.4994	0.21019	73.981	21.86	-0.98055	-2.3518	316	0.17189	0.13139	0.19732	0.4994	49.946	43.89	53.055	73.981
1216	142	4	70	16.537	1	0.044375	0.48832	0.19912	72.982	20.862	-2.9819	-4.3532	238	0.17569	0.1343	0.20169	0.48832	49.946	43.89	53.055	72.982
1216	143	4	64	10.537	1	0.044375	0.45475	0.16555	69.945	17.825	-5.9451	-7.3163	629	0.18722	0.14311	0.21492	0.45475	49.946	43.89	53.055	69.945
1216	144	3	46	-7.4631	0	0.044375	0.24071	-0.048493	53.055	0.93517	-7.0552	-8.4265	275	0.20969	0.16028	0.24071	0.38932	49.946	43.89	53.055	63.89
1216	145	1	44	-9.4631	0	0.044375	0.22444	-0.064767	49.946	-2.1742	-5.9458	-7.3171	294	0.22444	0.17155	0.1873	0.41671	49.946	43.89	45.87	63.89
1216	146	2	51	-2.4631	0	0.044375	0.18113	-0.10807	43.89	-8.2296	7.1095	5.7383	330	0.18113	0.18113	0.19776	0.43998	43.89	43.89	45.87	63.89
1216	147	3	52	-1.4631	0	0.044375	0.18506	-0.10414	45.87	-6.25	6.13	4.7587	289	0.1695	0.23372	0.18506	0.41172	43.89	51.131	45.87	63.89
1216	148	2	51	-2.4631	0	0.044375	0.22069	-0.068517	51.131	-0.98911	-0.13096	-1.5022	244	0.16004	0.22069	0.23052	0.38875	43.89	51.131	52.113	63.89
1216	149	4	57	3.5369	1	0.044375	0.38926	0.10006	63.89	11.77	-6.8905	-8.2617	256	0.16025	0.21967	0.23082	0.38926	43.89	50.998	52.113	63.89
1256	1	1	93	35.898	1	0.029063	0.25	-0.053123	0	-45.166	93	81.073	1470	0.25	0.25	0.25	0.25	0	0	0	0
1256	2	4	8	-49.102	0	0.029063	0.23196	-0.071165	0	-45.166	8	-3.9265	841	0.30412	0.23196	0.23196	0.23196	9.3205	0	0	0
1256	3	2	71	13.898	0	0.029063	0.2307	-0.072426	0	-45.166	71	59.073	474	0.30247	0.2307	0.2307	0.23614	9.3205	0	0	0.80176
1256	4	3	76	18.898	0	0.029063	0.21909	-0.084038	0	-45.166	76	64.073	414	0.28725	0.26942	0.21909	0.22425	9.3205	7.1157	0	0.80176
1256	5	4	12	-45.102	0	0.029063	0.2127	-0.090419	0.80176	-44.364	11.198	-0.72828	673	0.27246	0.25555	0.25929	0.2127	9.3205	7.1157	7.6168	0.80176
1256	6	1	88	30.898	1	0.029063	0.27055	-0.032575	9.3205	-35.845	78.679	66.753	305	0.27055	0.25376	0.25748	0.21822	9.3205	7.1157	7.6168	1.9241
1256	7	1	88	30.898	1	0.029063	0.31807	0.014942	17.206	-27.96	70.794	58.868	654	0.31807	0.23723	0.24071	0.204	17.206	7.1157	7.6168	1.9241
1256	8	2	74	16.898	0	0.029063	0.22112	-0.082003	7.1157	-38.05	66.884	54.958	413	0.36436	0.22112	0.22436	0.19015	24.301	7.1157	7.6168	1.9241
1256	9	1	81	23.898	1	0.029063	0.34782	0.044698	24.301	-20.865	56.699	44.773	273	0.34782	0.25648	0.21418	0.18152	24.301	13.819	7.6168	1.9241
1256	10	4	17	-40.102	0	0.029063	0.17085	-0.13227	1.9241	-43.242	15.076	3.1494	323	0.38616	0.2414	0.20159	0.17085	29.983	13.819	7.6168	1.9241
1256	11	3	80	22.898	0	0.029063	0.20005	-0.10307	7.6168	-37.549	72.383	60.457	305	0.38322	0.23957	0.20005	0.17716	29.983	13.819	7.6168	3.435
1256	12	4	21	-36.102	0	0.029063	0.16921	-0.13391	3.435	-41.731	17.565	5.6385	242	0.36603	0.22882	0.23593	0.16921	29.983	13.819	14.871	3.435
1256	13	2	75	17.898	0	0.029063	0.22681	-0.076315	13.819	-31.347	61.181	49.255	312	0.36281	0.22681	0.23385	0.17653	29.983	13.819	14.871	5.1954
1256	14	1	71	13.898	1	0.029063	0.34744	0.044317	29.983	-15.183	41.017	29.09	267	0.34744	0.25957	0.22394	0.16905	29.983	19.95	14.871	5.1954
1256	15	4	20	-37.102	0	0.029063	0.16191	-0.14121	5.1954	-39.971	14.805	2.8781	263	0.375	0.24861	0.21449	0.16191	34.094	19.95	14.871	5.1954
1256	16	4	20	-37.102	0	0.029063	0.16785	-0.13528	6.6791	-38.487	13.321	1.3944	337	0.37234	0.24684	0.21297	0.16785	34.094	19.95	14.871	6.6791
1256	17	4	16	-41.102	0	0.029063	0.17334	-0.12979	8.0141	-37.152	7.9859	-3.9406	314	0.36988	0.24522	0.21156	0.17334	34.094	19.95	14.871	8.0141
1256	18	3	78	20.898	0	0.029063	0.2107	-0.09242	14.871	-30.295	63.129	51.202	244	0.36838	0.24422	0.2107	0.1767	34.094	19.95	14.871	8.8145
1256	19	2	78	20.898	0	0.029063	0.23426	-0.068867	19.95	-25.216	58.05	46.123	250	0.35335	0.23426	0.2429	0.16949	34.094	19.95	21.198	8.8145
1256	20	1	72	14.898	1	0.029063	0.33873	0.035611	34.094	-11.072	37.906	25.98	402	0.33873	0.26593	0.23286	0.16248	34.094	25.768	21.198	8.8145
1256	21	4	17	-40.102	0	0.029063	0.1563	-0.14683	8.8145	-36.351	8.1855	-3.741	299	0.36389	0.25582	0.224	0.1563	37.893	25.768	21.198	8.8145
1256	22	2	78	20.898	0	0.029063	0.25486	-0.048266	25.768	-19.398	52.232	40.305	359	0.36252	0.25486	0.22316	0.15947	37.893	25.768	21.198	9.6348
1256	23	3	77	19.898	0	0.029063	0.21419	-0.088935	21.198	-23.968	55.802	43.876	303	0.34795	0.28481	0.21419	0.15306	37.893	31.003	21.198	9.6348
1256	24	1	76	18.898	1	0.029063	0.33527	0.032151	37.893	-7.273	38.107	26.181	450	0.33527	0.27443	0.24281	0.14748	37.893	31.003	26.79	9.6348
1256	25	3	79	21.898	0	0.029063	0.23362	-0.069507	26.79	-18.376	52.21	40.283	721	0.36045	0.26404	0.23362	0.1419	41.712	31.003	26.79	9.6348
1256	26	2	77	19.898	0	0.029063	0.25428	-0.048838	31.003	-14.163	45.997	34.071	473	0.34713	0.25428	0.26194	0.13665	41.712	31.003	32.023	9.6348
1256	27	4	11	-46.102	0	0.029063	0.13185	-0.17128	9.6348	-35.531	1.3652	-10.561	842	0.33492	0.28051	0.25272	0.13185	41.712	35.613	32.023	9.6348
1256	28	1	72	14.898	1	0.029063	0.33474	0.031618	41.712	-3.4539	30.288	18.361	384	0.33474	0.28037	0.25259	0.1323	41.712	35.613	32.023	9.7716
1256	29	3	74	16.898	0	0.029063	0.24503	-0.058098	32.023	-13.143	41.977	30.051	1339	0.35466	0.27197	0.24503	0.12834	44.748	35.613	32.023	9.7716
1256	30	2	69	11.898	0	0.029063	0.26357	-0.039552	35.613	-9.5532	33.387	21.461	1059	0.34371	0.26357	0.26834	0.12438	44.748	35.613	36.23	9.7716
1256	31	1	69	11.898	1	0.029063	0.3347	0.031578	44.748	-0.41844	24.252	12.326	261	0.3347	0.28288	0.26131	0.12112	44.748	38.959	36.23	9.7716
1256	32	3	66	8.898	0	0.029063	0.25506	-0.048065	36.23	-8.9361	29.77	17.844	350	0.35061	0.27611	0.25506	0.11822	47.178	38.959	36.23	9.7716
1256	33	2	63	5.898	0	0.029063	0.26988	-0.033247	38.959	-6.2071	24.041	12.115	456	0.34269	0.26988	0.27188	0.11555	47.178	38.959	39.213	9.7716
1256	34	4	15	-42.102	0	0.029063	0.11333	-0.18979	9.7716	-35.394	5.2284	-6.6982	255	0.33611	0.28389	0.26666	0.11333	47.178	41.368	39.213	9.7716
1256	35	1	65	7.898	1	0.029063	0.33553	0.032407	47.178	2.0122	17.822	5.8954	286	0.33553	0.2834	0.2662	0.11487	47.178	41.368	39.213	10.296
1256	36	3	61	3.898	0	0.029063	0.26152	-0.041601	39.213	-5.9526	21.787	9.8601	508	0.3472	0.27842	0.26152	0.11285	48.964	41.368	39.213	10.296
1256	37	1	67	9.898	1	0.029063	0.34135	0.038228	48.964	3.7983	18.036	6.1092	777	0.34135	0.27373	0.27396	0.11095	48.964	41.368	41.397	10.296
1256	38	3	61	3.898	0	0.029063	0.26901	-0.034115	41.397	-3.7691	19.603	7.6766	282	0.35326	0.26879	0.26901	0.10895	50.772	41.368	41.397	10.296
1256	39	2	54	-3.102	0	0.029063	0.2646	-0.038521	41.368	-3.7977	12.632	0.70522	329	0.34776	0.2646	0.28038	0.10725	50.772	41.368	43.362	10.296
1256	40	3	60	2.898	0	0.029063	0.27763	-0.025493	43.362	-1.8045	16.638	4.712	972	0.34435	0.27182	0.27763	0.1062	50.772	42.634	43.362	10.296
1256	41	1	63	5.898	1	0.029063	0.33966	0.036542	50.772	5.6058	12.228	0.30169	363	0.33966	0.26813	0.28745	0.10475	50.772	42.634	45.029	10.296
1256	42	1	64	6.898	1	0.029063	0.3477	0.044575	51.997	6.8313	12.003	0.076174	1170	0.3477	0.26487	0.28396	0.10348	51.997	42.634	45.029	10.296
1256	43	1	65	7.898	1	0.029063	0.35567	0.052546	53.2	8.0343	11.8	-0.12674	351	0.35567	0.26163	0.28049	0.10222	53.2	42.634	45.029	10.296
1256	44	1	66	8.898	1	0.029063	0.36358	0.06046	54.383	9.2168	11.617	-0.30932	318	0.36358	0.25841	0.27704	0.10096	54.383	42.634	45.029	10.296
1256	45	3	57	-0.10204	0	0.029063	0.27362	-0.029506	45.029	-0.13693	11.971	0.044455	630	0.37145	0.25522	0.27362	0.099712	55.547	42.634	45.029	10.296
1256	46	2	56	-1.102	0	0.029063	0.25277	-0.050356	42.634	-2.5317	13.366	1.4393	421	0.36788	0.25277	0.2806	0.098754	55.547	42.634	46.229	10.296
1256	47	1	64	6.898	1	0.029063	0.36422	0.061099	55.547	10.381	8.4529	-3.4736	376	0.36422	0.26019	0.27781	0.097773	55.547	43.974	46.229	10.296
1256	48	1	60	2.898	1	0.029063	0.36994	0.066819	56.394	11.228	3.6058	-8.3208	208	0.36994	0.25785	0.27531	0.096893	56.394	43.974	46.229	10.296
1256	49	4	18	-39.102	0	0.029063	0.096516	-0.20661	10.296	-34.87	7.7044	-4.2221	324	0.37239	0.25685	0.27424	0.096516	56.756	43.974	46.229	10.296
1256	50	3	71	13.898	0	0.029063	0.27364	-0.029479	46.229	1.0628	24.771	12.845	329	0.37158	0.25629	0.27364	0.098491	56.756	43.974	46.229	11.068
1256	51	2	56	-1.102	0	0.029063	0.25114	-0.05198	43.974	-1.1922	12.026	0.099737	406	0.36413	0.25114	0.28822	0.096515	56.756	43.974	48.711	11.068
1256	52	1	60	2.898	1	0.029063	0.36089	0.057771	56.756	11.59	3.2444	-8.6821	983	0.36089	0.25779	0.28566	0.095658	56.756	45.179	48.711	11.068
1256	53	2	48	-9.102	0	0.029063	0.25691	-0.046215	45.179	0.013061	2.821	-9.1055	276	0.36308	0.25691	0.28468	0.095332	57.081	45.179	48.711	11.068
1256	54	1	59	1.898	1	0.029063	0.36231	0.059185	57.081	11.915	1.9192	-10.007	488	0.36231	0.25848	0.28408	0.09513	57.081	45.462	48.711	11.068
1256	55	3	70	12.898	0	0.029063	0.28351	-0.019618	48.711	3.5454	21.289	9.3621	493	0.3636	0.25796	0.28351	0.094937	57.273	45.462	48.711	11.068
1256	56	2	49	-8.102	0	0.029063	0.25336	-0.049762	45.462	0.29578	3.5383	-8.3883	507	0.35712	0.25336	0.29627	0.093246	57.273	45.462	50.845	11.068
1256	57	1	55	-2.102	1	0.029063	0.35619	0.053066	57.273	12.107	-2.2731	-14.2	454	0.35619	0.25532	0.29549	0.093002	57.273	45.816	50.845	11.068
1256	58	4	7	-50.102	0	0.029063	0.093221	-0.2099	11.068	-34.098	-4.0678	-15.994	501	0.35467	0.25592	0.29619	0.093221	57.045	45.816	50.845	11.068
1256	59	1	60	2.898	1	0.029063	0.35506	0.051939	57.045	11.879	2.9547	-8.9718	1788	0.35506	0.2562	0.29651	0.092224	57.045	45.816	50.845	10.66
1256	60	2	48	-9.102	0	0.029063	0.25541	-0.047709	45.816	0.65039	2.1837	-9.7429	644	0.35704	0.25541	0.29561	0.091942	57.341	45.816	50.845	10.66
1256	61	1	59	1.898	1	0.029063	0.35645	0.053332	57.341	12.175	1.6586	-10.268	589	0.35645	0.25663	0.29513	0.091793	57.341	46.035	50.845	10.66
1256	62	2	51	-6.102	0	0.029063	0.25618	-0.046939	46.035	0.86923	4.9648	-6.9617	968	0.35756	0.25618	0.29462	0.091634	57.508	46.035	50.845	10.66
1256	63	3	77	19.898	0	0.029063	0.29352	-0.009601	50.845	5.6789	26.155	14.229	364	0.35623	0.25895	0.29352	0.091294	57.508	46.533	50.845	10.66
1256	64	1	67	9.898	1	0.029063	0.34815	0.045022	57.508	12.342	9.4924	-2.4342	544	0.34815	0.25307	0.30956	0.089221	57.508	46.533	53.466	10.66
1256	65	1	67	9.898	1	0.029063	0.35445	0.051323	58.459	13.293	8.541	-3.3855	1188	0.35445	0.25062	0.30657	0.088358	58.459	46.533	53.466	10.66
1256	66	1	64	6.898	1	0.029063	0.36016	0.057035	59.315	14.149	4.685	-7.2415	524	0.36016	0.24841	0.30386	0.087576	59.315	46.533	53.466	10.66
1256	67	1	62	4.898	1	0.029063	0.36331	0.060186	59.784	14.619	2.2155	-9.711	788	0.36331	0.24718	0.30236	0.087145	59.784	46.533	53.466	10.66
1256	68	2	38	-19.102	0	0.029063	0.2466	-0.056521	46.533	1.3668	-8.5328	-20.459	423	0.3648	0.2466	0.30165	0.086941	60.007	46.533	53.466	10.66
1256	69	1	61	3.898	1	0.029063	0.36703	0.063902	60.007	14.841	0.99346	-10.933	669	0.36703	0.24201	0.30349	0.08747	60.007	45.678	53.466	10.66
1256	70	1	57	-0.10204	1	0.029063	0.3677	0.064574	60.106	14.94	-3.1061	-15.033	201	0.3677	0.24176	0.30317	0.087377	60.106	45.678	53.466	10.66
1256	71	1	54	-3.102	1	0.029063	0.3656	0.062473	59.795	14.629	-5.7948	-17.721	284	0.3656	0.24256	0.30418	0.087668	59.795	45.678	53.466	10.66
1256	72	1	57	-0.10204	1	0.029063	0.36169	0.058568	59.214	14.048	-2.214	-14.141	487	0.36169	0.24405	0.30605	0.088207	59.214	45.678	53.466	10.66
1256	73	2	33	-24.102	0	0.029063	0.24462	-0.058501	45.678	0.51165	-12.678	-24.604	434	0.3602	0.24462	0.30676	0.088413	58.992	45.678	53.466	10.66
1256	74	3	67	9.898	0	0.029063	0.30951	0.0063828	53.466	8.3002	13.534	1.6073	610	0.36343	0.23786	0.30951	0.089204	58.992	44.407	53.466	10.66
1256	75	4	23	-34.102	0	0.029063	0.088108	-0.21502	10.66	-34.506	12.34	0.41339	422	0.35896	0.23494	0.31799	0.088108	58.992	44.407	54.823	10.66
1256	76	3	65	7.898	0	0.029063	0.31697	0.013848	54.823	9.6566	10.177	-1.7491	415	0.35781	0.23418	0.31697	0.091038	58.992	44.407	54.823	11.897
1256	77	1	59	1.898	1	0.029063	0.35443	0.051302	58.992	13.826	0.0078455	-11.919	443	0.35443	0.23197	0.32342	0.090178	58.992	44.407	55.843	11.897
1256	78	1	62	4.898	1	0.029063	0.35443	0.051307	58.993	13.827	3.0071	-8.9195	872	0.35443	0.23197	0.32342	0.090178	58.993	44.407	55.843	11.897
1256	79	2	33	-24.102	0	0.029063	0.23125	-0.071874	44.407	-0.75891	-11.407	-23.334	872	0.35644	0.23125	0.32242	0.089897	59.294	44.407	55.843	11.897
1256	80	1	59	1.898	1	0.029063	0.35915	0.056028	59.294	14.128	-0.29431	-12.221	369	0.35915	0.2254	0.32487	0.090582	59.294	43.264	55.843	11.897
1256	81	3	68	10.898	0	0.029063	0.32497	0.021847	55.843	10.677	12.157	0.23094	438	0.35895	0.22547	0.32497	0.09061	59.265	43.264	55.843	11.897
1256	82	1	57	-0.10204	1	0.029063	0.3548	0.051675	59.265	14.099	-2.2648	-14.191	609	0.3548	0.22285	0.33279	0.089561	59.265	43.264	57.061	11.897
1256	83	3	69	11.898	0	0.029063	0.33356	0.030441	57.061	11.895	11.939	0.012513	843	0.35329	0.22338	0.33356	0.08977	59.038	43.264	57.061	11.897
1256	84	1	52	-5.102	1	0.029063	0.34917	0.046045	59.038	13.872	-7.0378	-18.964	641	0.34917	0.22077	0.34134	0.088723	59.038	43.264	58.258	11.897
1256	85	1	55	-2.102	1	0.029063	0.34452	0.041401	58.332	13.167	-3.3325	-15.259	844	0.34452	0.22235	0.34377	0.089356	58.332	43.264	58.258	11.897
1256	86	2	42	-15.102	0	0.029063	0.22309	-0.080036	43.264	-1.9021	-1.2638	-13.19	1381	0.34234	0.22309	0.34492	0.089654	57.999	43.264	58.258	11.897
1256	87	3	68	10.898	1	0.029063	0.34521	0.042082	58.258	13.092	9.7425	-2.184	510	0.34262	0.22245	0.34521	0.089728	57.999	43.137	58.258	11.897
1256	88	1	46	-11.102	0	0.029063	0.33925	0.036122	57.999	12.833	-11.999	-23.925	395	0.33925	0.22026	0.35165	0.088845	57.999	43.137	59.234	11.897
1256	89	3	69	11.898	1	0.029063	0.35579	0.052669	59.234	14.068	9.7661	-2.1604	530	0.33146	0.22286	0.35579	0.089892	56.796	43.137	59.234	11.897
1256	90	2	38	-19.102	0	0.029063	0.22059	-0.08253	43.137	-2.0288	-5.1372	-17.064	414	0.32809	0.22059	0.36234	0.088979	56.796	43.137	60.213	11.897
1256	91	4	36	-21.102	0	0.029063	0.089271	-0.21385	11.897	-33.269	24.103	12.177	361	0.32917	0.21803	0.36353	0.089271	56.796	42.622	60.213	11.897
1256	92	2	37	-20.102	0	0.029063	0.21663	-0.086498	42.622	-2.5436	-5.6223	-17.549	1317	0.32704	0.21663	0.36118	0.095146	56.796	42.622	60.213	14.312
1256	93	1	36	-21.102	0	0.029063	0.3282	0.025075	56.796	11.63	-20.796	-32.723	319	0.3282	0.21386	0.36246	0.095482	56.796	42.059	60.213	14.312
1256	94	3	77	19.898	1	0.029063	0.36959	0.066466	60.213	15.047	16.787	4.8608	416	0.31498	0.21807	0.36959	0.09736	54.712	42.059	60.213	14.312
1256	95	3	76	18.898	1	0.029063	0.38105	0.077929	61.895	16.729	14.105	2.1784	1396	0.30926	0.2141	0.38105	0.09559	54.712	42.059	61.895	14.312
1256	96	3	73	15.898	1	0.029063	0.39079	0.087665	63.309	18.143	9.6913	-2.2352	1285	0.30439	0.21073	0.39079	0.094086	54.712	42.059	63.309	14.312
1256	97	4	38	-19.102	0	0.029063	0.093045	-0.21008	14.312	-30.854	23.688	11.761	794	0.30102	0.2084	0.39753	0.093045	54.712	42.059	64.28	14.312
1256	98	3	78	20.898	1	0.029063	0.3949	0.091781	64.28	19.114	13.72	1.7935	463	0.29904	0.20703	0.3949	0.099033	54.712	42.059	64.28	16.686
1256	99	NaN	NaN	0	0	0.029063	0	0	0	0	0	0	0	0	0	0	0	0	0	0	0
1256	100	1	43	-14.102	0	0.029063	0.2943	-0.0088244	54.712	9.5459	-11.712	-23.638	793	0.2943	0.20374	0.40449	0.097464	54.712	42.059	65.655	16.686
1256	101	2	25	-32.102	0	0.029063	0.20578	-0.097347	42.059	-3.1071	-17.059	-28.985	358	0.28726	0.20578	0.40852	0.098436	53.538	42.059	65.655	16.686
1256	102	3	84	26.898	1	0.029063	0.41264	0.10952	65.655	20.489	18.345	6.4185	686	0.29016	0.19777	0.41264	0.099427	53.538	40.349	65.655	16.686
1256	103	NaN	NaN	0	0	0.029063	0	0	0	0	0	0	0	0	0	0	0	0	0	0	0
1256	104	4	44	-13.102	0	0.029063	0.097225	-0.2059	16.686	-28.48	27.314	15.387	560	0.28373	0.19339	0.42565	0.097225	53.538	40.349	67.494	16.686
1256	105	3	91	33.898	1	0.029063	0.42225	0.11913	67.494	22.328	23.506	11.58	1219	0.28147	0.19185	0.42225	0.10444	53.538	40.349	67.494	19.424
1256	106	3	94	36.898	1	0.029063	0.43903	0.13591	69.849	24.683	24.151	12.224	433	0.27329	0.18628	0.43903	0.1014	53.538	40.349	69.849	19.424
1256	107	3	90	32.898	1	0.029063	0.45643	0.1533	72.27	27.104	17.73	5.8037	682	0.26482	0.1805	0.45643	0.098257	53.538	40.349	72.27	19.424
1256	108	1	47	-10.102	0	0.029063	0.25856	-0.044562	53.538	8.3721	-6.5381	-18.465	552	0.25856	0.17624	0.46926	0.095937	53.538	40.349	74.047	19.424
1256	109	4	37	-20.102	0	0.029063	0.096407	-0.20672	19.424	-25.742	17.576	5.6497	400	0.25493	0.1771	0.47156	0.096407	52.883	40.349	74.047	19.424
1256	110	2	38	-19.102	0	0.029063	0.17621	-0.12691	40.349	-4.8168	-2.3492	-14.276	337	0.25364	0.17621	0.46919	0.10096	52.883	40.349	74.047	21.185
1256	111	3	90	32.898	1	0.029063	0.46975	0.16663	74.047	28.881	15.953	4.0268	498	0.25395	0.17522	0.46975	0.10108	52.883	40.114	74.047	21.185
1256	112	3	89	31.898	1	0.029063	0.48134	0.17822	75.646	30.48	13.354	1.4279	588	0.2484	0.17139	0.48134	0.098872	52.883	40.114	75.646	21.185
1256	113	3	86	28.898	1	0.029063	0.49106	0.18793	76.984	31.818	9.0161	-2.9105	456	0.24374	0.16818	0.49106	0.09702	52.883	40.114	76.984	21.185
1256	114	3	86	28.898	1	0.029063	0.49762	0.1945	77.888	32.722	8.1125	-3.814	747	0.2406	0.16601	0.49762	0.095768	52.883	40.114	77.888	21.185
1256	115	3	86	28.898	1	0.029063	0.50353	0.20041	78.701	33.535	7.2994	-4.6271	600	0.23777	0.16406	0.50353	0.094642	52.883	40.114	78.701	21.185
1256	116	2	26	-31.102	0	0.029063	0.1623	-0.14082	40.114	-5.0522	-14.114	-26.04	563	0.23523	0.1623	0.50884	0.093629	52.883	40.114	79.432	21.185
1256	117	4	32	-25.102	0	0.029063	0.094245	-0.20888	21.185	-23.981	10.815	-1.1118	266	0.23677	0.15679	0.51219	0.094245	52.883	38.699	79.432	21.185
1256	118	1	38	-19.102	0	0.029063	0.23606	-0.067061	52.883	7.7169	-14.883	-26.809	385	0.23606	0.15632	0.51065	0.096969	52.883	38.699	79.432	22.269
1256	119	3	81	23.898	1	0.029063	0.51582	0.21269	79.432	34.266	1.5679	-10.359	417	0.22834	0.1579	0.51582	0.09795	51.391	38.699	79.432	22.269
1256	120	3	80	22.898	1	0.029063	0.51696	0.21383	79.589	34.423	0.41075	-11.516	600	0.2278	0.15753	0.51696	0.097719	51.391	38.699	79.589	22.269
1256	121	3	77	19.898	1	0.029063	0.51726	0.21413	79.63	34.464	-2.6304	-14.557	613	0.22766	0.15743	0.51726	0.097658	51.391	38.699	79.63	22.269
1256	122	3	77	19.898	1	0.029063	0.51534	0.21222	79.367	34.201	-2.3668	-14.293	725	0.22856	0.15805	0.51534	0.098045	51.391	38.699	79.367	22.269
1256	123	3	73	15.898	1	0.029063	0.51362	0.2105	79.13	33.964	-6.1296	-18.056	369	0.22937	0.15861	0.51362	0.098394	51.391	38.699	79.13	22.269
1256	124	3	77	19.898	1	0.029063	0.50916	0.20604	78.515	33.349	-1.5153	-13.442	646	0.23147	0.16007	0.50916	0.099296	51.391	38.699	78.515	22.269
1256	125	3	75	17.898	1	0.029063	0.50806	0.20493	78.363	33.197	-3.3634	-15.29	768	0.23199	0.16043	0.50806	0.099519	51.391	38.699	78.363	22.269
1256	126	3	72	14.898	1	0.029063	0.50561	0.20248	78.026	32.86	-6.0263	-17.953	814	0.23315	0.16123	0.50561	0.10001	51.391	38.699	78.026	22.269
1256	127	3	68	10.898	1	0.029063	0.50122	0.1981	77.422	32.256	-9.4224	-21.349	1590	0.23522	0.16266	0.50122	0.1009	51.391	38.699	77.422	22.269
1256	128	2	19	-38.102	0	0.029063	0.1649	-0.13823	38.699	-6.4667	-19.699	-31.626	390	0.23845	0.1649	0.49436	0.10229	51.391	38.699	76.478	22.269
1256	129	4	42	-15.102	0	0.029063	0.10324	-0.19988	22.269	-22.897	19.731	7.8043	257	0.24067	0.15715	0.49895	0.10324	51.391	36.725	76.478	22.269
1256	130	1	23	-34.102	0	0.029063	0.23921	-0.063917	51.391	6.2253	-28.391	-40.318	458	0.23921	0.15619	0.49592	0.10868	51.391	36.725	76.478	24.247
1256	131	4	40	-17.102	0	0.029063	0.11079	-0.19234	24.247	-20.919	15.753	3.8269	379	0.22448	0.15922	0.50552	0.11079	48.546	36.725	76.478	24.247
1256	132	1	29	-28.102	0	0.029063	0.22332	-0.079802	48.546	3.3799	-19.546	-31.472	465	0.22332	0.15839	0.5029	0.11539	48.546	36.725	76.478	25.825
1256	133	3	74	16.898	1	0.029063	0.50919	0.20607	76.478	31.312	-2.4781	-14.405	489	0.2136	0.16037	0.50919	0.11683	46.587	36.725	76.478	25.825
1256	134	3	72	14.898	1	0.029063	0.50739	0.20427	76.23	31.064	-4.2297	-16.156	1542	0.21439	0.16096	0.50739	0.11726	46.587	36.725	76.23	25.825
1256	135	2	30	-27.102	0	0.029063	0.16197	-0.14115	36.725	-8.441	-6.725	-18.652	652	0.21573	0.16197	0.50431	0.11799	46.587	36.725	75.806	25.825
1256	136	3	72	14.898	1	0.029063	0.5059	0.20278	75.806	30.64	-3.8058	-15.732	667	0.21641	0.15933	0.5059	0.11837	46.587	36.051	75.806	25.825
1256	137	2	25	-32.102	0	0.029063	0.16022	-0.1429	36.051	-9.1149	-11.051	-22.978	903	0.21762	0.16022	0.50313	0.11903	46.587	36.051	75.424	25.825
1256	138	3	70	12.898	1	0.029063	0.50569	0.20257	75.424	30.258	-5.4244	-17.351	855	0.21873	0.15594	0.50569	0.11964	46.587	34.943	75.424	25.825
1256	139	3	71	13.898	1	0.029063	0.50174	0.19862	74.881	29.715	-3.8807	-15.807	703	0.22048	0.15718	0.50174	0.12059	46.587	34.943	74.881	25.825
1256	140	3	67	9.898	1	0.029063	0.49892	0.1958	74.492	29.326	-7.4918	-19.418	576	0.22173	0.15807	0.49892	0.12128	46.587	34.943	74.492	25.825
1256	141	NaN	NaN	0	0	0.029063	0	0	0	0	0	0	0	0	0	0	0	0	0	0	0
1256	142	1	31	-26.102	0	0.029063	0.22414	-0.07898	46.587	1.421	-15.587	-27.513	713	0.22414	0.1598	0.49346	0.1226	46.587	34.943	73.741	25.825
1256	143	3	62	4.898	1	0.029063	0.49842	0.1953	73.741	28.575	-11.741	-23.668	342	0.21635	0.1614	0.49842	0.12383	45.025	34.943	73.741	25.825
1256	144	2	19	-38.102	0	0.029063	0.16415	-0.13897	34.943	-10.222	-15.943	-27.87	669	0.22003	0.16415	0.48987	0.12594	45.025	34.943	72.564	25.825
1256	145	4	45	-12.102	0	0.029063	0.12688	-0.17624	25.825	-19.341	19.175	7.2481	449	0.22169	0.15788	0.49355	0.12688	45.025	33.346	72.564	25.825
1256	146	4	42	-15.102	0	0.029063	0.1332	-0.16992	27.747	-17.419	14.253	2.3264	1139	0.22008	0.15674	0.48998	0.1332	45.025	33.346	72.564	27.747
1256	147	3	67	9.898	1	0.029063	0.48723	0.18411	72.564	27.398	-5.5643	-17.491	516	0.21885	0.15586	0.48723	0.13807	45.025	33.346	72.564	29.176
1256	148	3	65	7.898	1	0.029063	0.48318	0.18006	72.007	26.841	-7.0066	-18.933	451	0.22057	0.15709	0.48318	0.13916	45.025	33.346	72.007	29.176
1256	149	2	16	-41.102	0	0.029063	0.15864	-0.14449	33.346	-11.82	-17.346	-29.272	316	0.22275	0.15864	0.47809	0.14053	45.025	33.346	71.304	29.176
1257	1	3	93	40.197	0	0.039688	0.25	-0.020334	0	-35.763	93	75.963	1731	0.25	0.25	0.25	0.25	0	0	0	0
1257	2	4	91	38.197	0	0.039688	0.23605	-0.034279	0	-35.763	91	73.963	1586	0.23605	0.23605	0.29184	0.23605	0	0	5.3451	0
1257	3	3	87	34.197	1	0.039688	0.27677	0.0064323	5.3451	-30.418	81.655	64.618	1057	0.22386	0.22386	0.27677	0.27551	0	0	5.3451	5.2301
1257	4	4	88	35.197	0	0.039688	0.26073	-0.0096011	5.2301	-30.533	82.77	65.733	1061	0.21186	0.21186	0.31555	0.26073	0	0	10.038	5.2301
1257	5	1	85	32.197	0	0.039688	0.20097	-0.069362	0	-35.763	85	67.963	581	0.20097	0.20097	0.29933	0.29873	0	0	10.038	9.9873
1257	6	3	88	35.197	1	0.039688	0.28699	0.016657	10.038	-25.725	77.962	60.925	644	0.23391	0.19269	0.28699	0.28641	4.8853	0	10.038	9.9873
1257	7	4	88	35.197	0	0.039688	0.27126	0.00092679	9.9873	-25.775	78.013	60.976	899	0.22154	0.18249	0.32471	0.27126	4.8853	0	14.519	9.9873
1257	8	1	85	32.197	0	0.039688	0.21042	-0.059912	4.8853	-30.877	80.115	63.078	1054	0.21042	0.17334	0.30841	0.30783	4.8853	0	14.519	14.471
1257	9	4	81	28.197	0	0.039688	0.29537	0.025033	14.471	-21.292	66.529	49.492	315	0.24239	0.16632	0.29593	0.29537	9.4898	0	14.519	14.471
1257	10	3	83	30.197	0	0.039688	0.28227	0.011934	14.519	-21.244	68.481	51.444	421	0.23119	0.15864	0.28227	0.3279	9.4898	0	14.519	18.295
1257	11	4	85	32.197	0	0.039688	0.31296	0.04263	18.295	-17.468	66.705	49.668	290	0.22066	0.15141	0.31496	0.31296	9.4898	0	18.455	18.295
1257	12	4	80	27.197	1	0.039688	0.34657	0.076237	22.128	-13.634	57.872	40.834	546	0.20987	0.14401	0.29955	0.34657	9.4898	0	18.455	22.128
1257	13	3	78	25.197	0	0.039688	0.28559	0.015251	18.455	-17.308	59.545	42.508	276	0.20008	0.13729	0.28559	0.37704	9.4898	0	18.455	25.455
1257	14	2	74	21.197	0	0.039688	0.13182	-0.13852	0	-35.763	74	56.963	359	0.1921	0.13182	0.31408	0.362	9.4898	0	21.877	25.455
1257	15	1	72	19.197	0	0.039688	0.18756	-0.082776	9.4898	-26.273	62.51	45.473	1252	0.18756	0.15236	0.30665	0.35343	9.4898	4.2531	21.877	25.455
1257	16	3	73	20.197	0	0.039688	0.29808	0.027748	21.877	-13.886	51.123	34.086	325	0.21026	0.1481	0.29808	0.34356	13.083	4.2531	21.877	25.455
1257	17	2	74	21.197	0	0.039688	0.14284	-0.1275	4.2531	-31.51	69.747	52.71	295	0.20278	0.14284	0.32304	0.33134	13.083	4.2531	24.815	25.455
1257	18	4	73	20.197	1	0.039688	0.32338	0.053042	25.455	-10.308	47.545	30.508	342	0.19791	0.16344	0.31527	0.32338	13.083	8.2617	24.815	25.455
1257	19	2	78	25.197	0	0.039688	0.15761	-0.11273	8.2617	-27.501	69.738	52.701	305	0.19084	0.15761	0.30401	0.34754	13.083	8.2617	24.815	28.187
1257	20	1	72	19.197	0	0.039688	0.18579	-0.084545	13.083	-22.68	58.917	41.88	422	0.18579	0.17989	0.29597	0.33835	13.083	12.27	24.815	28.187
1257	21	2	77	24.197	0	0.039688	0.17521	-0.095124	12.27	-23.493	64.73	47.693	341	0.20698	0.17521	0.28827	0.32954	16.469	12.27	24.815	28.187
1257	22	3	73	20.197	0	0.039688	0.28045	0.010114	24.815	-10.947	48.185	31.148	434	0.20137	0.19758	0.28045	0.32061	16.469	15.99	24.815	28.187
1257	23	3	73	20.197	0	0.039688	0.30315	0.032819	27.585	-8.178	45.415	28.378	409	0.19501	0.19134	0.30315	0.31049	16.469	15.99	27.585	28.187
1257	24	4	76	23.197	0	0.039688	0.30054	0.030211	28.187	-7.5755	47.813	30.776	551	0.18877	0.18522	0.32547	0.30054	16.469	15.99	30.195	28.187
1257	25	2	76	23.197	0	0.039688	0.17902	-0.091317	15.99	-19.773	60.01	42.973	518	0.18245	0.17902	0.31458	0.32396	16.469	15.99	30.195	30.935
1257	26	1	75	22.197	0	0.039688	0.17778	-0.092553	16.469	-19.294	58.531	41.494	733	0.17778	0.20002	0.30653	0.31567	16.469	19.439	30.195	30.935
1257	27	4	72	19.197	1	0.039688	0.30785	0.037517	30.935	-4.8275	41.065	24.028	783	0.19814	0.19507	0.29894	0.30785	19.833	19.439	30.195	30.935
1257	28	3	72	19.197	0	0.039688	0.29017	0.019832	30.195	-5.5678	41.805	24.768	747	0.19233	0.18935	0.29017	0.32816	19.833	19.439	30.195	33.295
1257	29	3	69	16.197	0	0.039688	0.31019	0.039858	32.598	-3.1651	36.402	19.365	472	0.1869	0.18401	0.31019	0.3189	19.833	19.439	32.598	33.295
1257	30	2	69	16.197	0	0.039688	0.17919	-0.091141	19.439	-16.324	49.561	32.524	909	0.18201	0.17919	0.32823	0.31056	19.833	19.439	34.69	33.295
1257	31	1	69	16.197	0	0.039688	0.17819	-0.092141	19.833	-15.93	49.167	32.13	743	0.17819	0.19643	0.32134	0.30404	19.833	22.288	34.69	33.295
1257	32	4	70	17.197	0	0.039688	0.29774	0.02741	33.295	-2.4674	36.705	19.668	399	0.19521	0.19236	0.31469	0.29774	22.659	22.288	34.69	33.295
1257	33	4	68	15.197	1	0.039688	0.31554	0.045207	35.405	-0.3578	32.595	15.558	289	0.19026	0.18748	0.30671	0.31554	22.659	22.288	34.69	35.405
1257	34	3	68	15.197	0	0.039688	0.29942	0.029085	34.69	-1.0729	33.31	16.273	724	0.18574	0.18303	0.29942	0.33181	22.659	22.288	34.69	37.278
1257	35	2	65	12.197	0	0.039688	0.1788	-0.091533	22.288	-13.475	42.712	25.675	383	0.18145	0.1788	0.3156	0.32415	22.659	22.288	36.604	37.278
1257	36	1	68	15.197	0	0.039688	0.17819	-0.092142	22.659	-13.104	45.341	28.304	1196	0.17819	0.19356	0.30992	0.31833	22.659	24.742	36.604	37.278
1257	37	1	67	14.197	0	0.039688	0.19384	-0.076489	25.265	-10.498	41.735	24.698	308	0.19384	0.18987	0.30402	0.31226	25.265	24.742	36.604	37.278
1257	38	3	65	12.197	0	0.039688	0.29825	0.027914	36.604	0.84154	28.396	11.359	330	0.20916	0.18626	0.29825	0.30633	27.663	24.742	36.604	37.278
1257	39	2	54	1.1973	0	0.039688	0.18262	-0.087715	24.742	-11.02	29.258	12.22	118	0.20506	0.18262	0.31198	0.30034	27.663	24.742	38.236	37.278
1257	40	3	64	11.197	1	0.039688	0.3081	0.037762	38.236	2.4736	25.764	8.7266	955	0.20251	0.19279	0.3081	0.2966	27.663	26.424	38.236	37.278
1257	41	4	63	10.197	0	0.039688	0.29117	0.020838	37.278	1.5156	25.722	8.6846	1186	0.1988	0.18926	0.32076	0.29117	27.663	26.424	39.717	37.278
1257	42	1	64	11.197	0	0.039688	0.19537	-0.074967	27.663	-8.0995	36.337	19.3	537	0.19537	0.18599	0.31522	0.30343	27.663	26.424	39.717	38.757
1257	43	2	55	2.1973	0	0.039688	0.1829	-0.087431	26.424	-9.3387	28.576	11.539	1285	0.20872	0.1829	0.30998	0.29839	29.752	26.424	39.717	38.757
1257	44	4	66	13.197	0	0.039688	0.29476	0.024425	38.757	2.9939	27.243	10.206	904	0.20618	0.19285	0.30621	0.29476	29.752	28.066	39.717	38.757
1257	45	3	65	12.197	0	0.039688	0.30053	0.030198	39.717	3.9543	25.283	8.2458	587	0.20236	0.18927	0.30053	0.30784	29.752	28.066	39.717	40.322
1257	46	4	66	13.197	0	0.039688	0.30244	0.03211	40.322	4.5597	25.678	8.6405	380	0.19881	0.18595	0.31279	0.30244	29.752	28.066	41.17	40.322
1257	47	3	64	11.197	0	0.039688	0.30719	0.036854	41.17	5.4074	22.83	5.7927	650	0.19525	0.18262	0.30719	0.31494	29.752	28.066	41.17	41.798
1257	48	4	60	7.1973	0	0.039688	0.30985	0.03952	41.798	6.0355	18.202	1.1647	348	0.1921	0.17967	0.31838	0.30985	29.752	28.066	42.482	41.798
1257	49	1	56	3.1973	0	0.039688	0.18961	-0.080727	29.752	-6.011	26.248	9.2112	273	0.18961	0.17734	0.31425	0.3188	29.752	28.066	42.482	42.844
1257	50	2	56	3.1973	0	0.039688	0.17529	-0.095045	28.066	-7.6963	27.934	10.896	411	0.19898	0.17529	0.31062	0.31511	31.26	28.066	42.482	42.844
1257	51	4	58	5.1973	1	0.039688	0.31152	0.041188	42.844	7.0816	15.156	-1.8815	549	0.19671	0.18469	0.30708	0.31152	31.26	29.672	42.482	42.844
1257	52	3	60	7.1973	0	0.039688	0.30375	0.033415	42.482	6.7195	17.518	0.4806	409	0.19458	0.18269	0.30375	0.31898	31.26	29.672	42.482	43.715
1257	53	1	60	7.1973	0	0.039688	0.1922	-0.078136	31.26	-4.5024	28.74	11.703	391	0.1922	0.18046	0.31227	0.31508	31.26	29.672	43.489	43.715
1257	54	3	59	6.1973	0	0.039688	0.30825	0.037918	43.489	7.7264	15.511	-1.5262	764	0.20258	0.17814	0.30825	0.31103	32.912	29.672	43.489	43.715
1257	55	4	55	2.1973	0	0.039688	0.30762	0.037284	43.715	7.9527	11.285	-5.7525	419	0.20036	0.17618	0.31585	0.30762	32.912	29.672	44.381	43.715
1257	56	2	49	-3.8027	0	0.039688	0.17478	-0.095556	29.672	-6.0909	19.328	2.291	1695	0.19876	0.17478	0.31333	0.31313	32.912	29.672	44.381	44.364
1257	57	3	55	2.1973	1	0.039688	0.31088	0.04055	44.381	8.6178	10.619	-6.4177	849	0.19721	0.18123	0.31088	0.31068	32.912	30.783	44.381	44.364
1257	58	3	58	5.1973	1	0.039688	0.3161	0.045763	44.991	9.2282	13.009	-4.028	501	0.19572	0.17986	0.3161	0.30833	32.912	30.783	44.991	44.364
1257	59	3	60	7.1973	1	0.039688	0.32255	0.052213	45.739	9.9759	14.261	-2.7757	288	0.19387	0.17816	0.32255	0.30542	32.912	30.783	45.739	44.364
1257	60	3	59	6.1973	1	0.039688	0.3297	0.059362	46.558	10.796	12.442	-4.5954	308	0.19183	0.17628	0.3297	0.3022	32.912	30.783	46.558	44.364
1257	61	3	59	6.1973	1	0.039688	0.336	0.065664	47.273	11.511	11.727	-5.3104	378	0.19002	0.17462	0.336	0.29936	32.912	30.783	47.273	44.364
1257	62	3	60	7.1973	1	0.039688	0.34199	0.071657	47.947	12.185	12.053	-4.9844	313	0.18831	0.17305	0.34199	0.29666	32.912	30.783	47.947	44.364
1257	63	3	65	12.197	1	0.039688	0.3482	0.07787	48.64	12.877	16.36	-0.67714	597	0.18653	0.17141	0.3482	0.29385	32.912	30.783	48.64	44.364
1257	64	3	67	14.197	1	0.039688	0.35672	0.086387	49.58	13.818	17.42	0.38258	260	0.18409	0.16917	0.35672	0.29001	32.912	30.783	49.58	44.364
1257	65	3	67	14.197	1	0.039688	0.36589	0.095556	50.581	14.819	16.419	-0.6186	340	0.18147	0.16676	0.36589	0.28588	32.912	30.783	50.581	44.364
1257	66	NaN	NaN	0	0	0.039688	0	0	0	0	0	0	0	0	0	0	0	0	0	0	0
1257	67	3	62	9.1973	1	0.039688	0.37462	0.10429	51.525	15.762	10.475	-6.5622	1773	0.17897	0.16447	0.37462	0.28194	32.912	30.783	51.525	44.364
1257	68	3	62	9.1973	1	0.039688	0.38024	0.1099	52.127	16.364	9.8728	-7.1643	317	0.17736	0.16299	0.38024	0.27941	32.912	30.783	52.127	44.364
1257	69	3	61	8.1973	1	0.039688	0.38556	0.11522	52.695	16.932	8.3054	-8.7317	218	0.17584	0.16159	0.38556	0.27701	32.912	30.783	52.695	44.364
1257	70	3	57	4.1973	1	0.039688	0.39005	0.11972	53.172	17.409	3.8281	-13.209	301	0.17455	0.16041	0.39005	0.27499	32.912	30.783	53.172	44.364
1257	71	3	54	1.1973	1	0.039688	0.39213	0.1218	53.392	17.629	0.60805	-16.429	284	0.17396	0.15986	0.39213	0.27405	32.912	30.783	53.392	44.364
1257	72	4	57	4.1973	0	0.039688	0.2739	0.0035661	44.364	8.6012	12.636	-4.4011	307	0.17386	0.15977	0.39246	0.2739	32.912	30.783	53.427	44.364
1257	73	3	57	4.1973	1	0.039688	0.38935	0.11901	53.427	17.664	3.5731	-13.464	312	0.17248	0.1585	0.38935	0.27967	32.912	30.783	53.427	45.09
1257	74	3	55	2.1973	1	0.039688	0.39129	0.12095	53.632	17.87	1.3677	-15.669	528	0.17193	0.158	0.39129	0.27878	32.912	30.783	53.632	45.09
1257	75	3	61	8.1973	1	0.039688	0.39203	0.1217	53.711	17.948	7.2891	-9.748	372	0.17172	0.15781	0.39203	0.27844	32.912	30.783	53.711	45.09
1257	76	4	62	9.1973	0	0.039688	0.27662	0.0062887	45.09	9.3275	16.91	-0.12734	310	0.1706	0.15678	0.396	0.27662	32.912	30.783	54.13	45.09
1257	77	3	59	6.1973	1	0.039688	0.39174	0.1214	54.13	18.367	4.8702	-12.167	686	0.16877	0.15509	0.39174	0.28441	32.912	30.783	54.13	46.062
1257	78	4	62	9.1973	0	0.039688	0.28317	0.012834	46.062	10.299	15.938	-1.0992	436	0.16803	0.15441	0.39439	0.28317	32.912	30.783	54.41	46.062
1257	79	3	60	7.1973	1	0.039688	0.3903	0.11996	54.41	18.647	5.5903	-11.447	385	0.16629	0.15281	0.3903	0.2906	32.912	30.783	54.41	46.978
1257	80	4	59	6.1973	0	0.039688	0.28916	0.018823	46.978	11.215	12.022	-5.0152	628	0.16546	0.15205	0.39333	0.28916	32.912	30.783	54.731	46.978
1257	81	1	55	2.1973	0	0.039688	0.16414	-0.10619	32.912	-2.8507	22.088	5.0508	321	0.16414	0.15084	0.3902	0.29483	32.912	30.783	54.731	47.669
1257	82	2	36	-16.803	0	0.039688	0.14957	-0.12076	30.783	-4.98	5.2173	-11.82	1076	0.17117	0.14957	0.38692	0.29235	34.182	30.783	54.731	47.669
1257	83	3	57	4.1973	1	0.039688	0.38622	0.11589	54.731	18.968	2.269	-14.768	310	0.17086	0.15109	0.38622	0.29182	34.182	31.083	54.731	47.669
1257	84	1	52	-0.80272	0	0.039688	0.17052	-0.099812	34.182	-1.5812	17.818	0.78132	330	0.17052	0.15079	0.38745	0.29124	34.182	31.083	54.861	47.669
1257	85	3	55	2.1973	1	0.039688	0.38473	0.1144	54.861	19.099	0.13858	-16.899	306	0.17635	0.14973	0.38473	0.28919	35.206	31.083	54.861	47.669
1257	86	3	48	-4.8027	1	0.039688	0.38481	0.11447	54.869	19.107	-6.8694	-23.906	321	0.17633	0.14971	0.38481	0.28916	35.206	31.083	54.869	47.669
1257	87	4	47	-5.8027	0	0.039688	0.2909	0.020565	47.669	11.906	-0.66907	-17.706	282	0.17739	0.15061	0.3811	0.2909	35.206	31.083	54.475	47.669
1257	88	NaN	NaN	0	0	0.039688	0	0	0	0	0	0	0	0	0	0	0	0	0	0	0
1257	89	1	43	-9.8027	0	0.039688	0.17747	-0.092868	35.206	-0.55708	7.7943	-9.2428	633	0.17747	0.15068	0.38127	0.29058	35.206	31.083	54.475	47.631
1257	90	4	42	-10.803	0	0.039688	0.28966	0.019329	47.631	11.868	-5.6306	-22.668	305	0.18008	0.1502	0.38006	0.28966	35.654	31.083	54.475	47.631
1257	91	2	38	-14.803	0	0.039688	0.15076	-0.11958	31.083	-4.6801	6.9174	-10.12	314	0.18074	0.15076	0.38147	0.28703	35.654	31.083	54.475	47.307
1257	92	4	37	-15.803	0	0.039688	0.28634	0.016007	47.307	11.544	-10.307	-27.344	216	0.18031	0.15279	0.38056	0.28634	35.654	31.48	54.475	47.307
1257	93	1	36	-16.803	0	0.039688	0.18152	-0.088814	35.654	-0.10911	0.34636	-16.691	432	0.18152	0.15381	0.38311	0.28156	35.654	31.48	54.475	46.715
1257	94	4	33	-19.803	0	0.039688	0.28152	0.011186	46.715	10.952	-13.715	-30.752	599	0.18164	0.15379	0.38305	0.28152	35.674	31.48	54.475	46.715
1257	95	2	29	-23.803	0	0.039688	0.15513	-0.1152	31.48	-4.2826	-2.4802	-19.517	407	0.18323	0.15513	0.3864	0.27524	35.674	31.48	54.475	45.926
1257	96	3	39	-13.803	1	0.039688	0.38674	0.11641	54.475	18.712	-15.475	-32.512	385	0.18339	0.15439	0.38674	0.27548	35.674	31.338	54.475	45.926
1257	97	3	43	-9.8027	1	0.039688	0.37841	0.10807	53.585	17.822	-10.585	-27.622	1178	0.18588	0.15649	0.37841	0.27922	35.674	31.338	53.585	45.926
1257	98	3	45	-7.8027	1	0.039688	0.37274	0.10241	52.977	17.214	-7.9768	-25.014	368	0.18757	0.15792	0.37274	0.28177	35.674	31.338	52.977	45.926
1257	99	3	41	-11.803	1	0.039688	0.3685	0.098165	52.518	16.756	-11.518	-28.555	326	0.18884	0.15899	0.3685	0.28367	35.674	31.338	52.518	45.926
1257	100	3	43	-9.8027	1	0.039688	0.36241	0.092073	51.856	16.094	-8.8563	-25.893	683	0.19066	0.16052	0.36241	0.28641	35.674	31.338	51.856	45.926
1257	101	1	41	-11.803	0	0.039688	0.19206	-0.078278	35.674	-0.089201	5.3265	-11.711	1208	0.19206	0.16169	0.35775	0.2885	35.674	31.338	51.347	45.926
1257	102	3	41	-11.803	1	0.039688	0.35691	0.08658	51.347	15.585	-10.347	-27.384	292	0.19395	0.16131	0.35691	0.28782	35.98	31.338	51.347	45.926
1257	103	1	39	-13.803	0	0.039688	0.19558	-0.074757	35.98	0.21693	3.0203	-14.017	1133	0.19558	0.16267	0.35151	0.29024	35.98	31.338	50.753	45.926
1257	104	3	42	-10.803	1	0.039688	0.35104	0.080706	50.753	14.99	-8.7526	-25.79	1101	0.19666	0.16245	0.35104	0.28985	36.153	31.338	50.753	45.926
1257	105	4	43	-9.8027	0	0.039688	0.29187	0.02154	45.926	10.164	-2.9264	-19.963	777	0.19804	0.16358	0.34651	0.29187	36.153	31.338	50.25	45.926
1257	106	1	38	-14.803	0	0.039688	0.19842	-0.071912	36.153	0.39052	1.8467	-15.19	1158	0.19842	0.1639	0.34718	0.2905	36.153	31.338	50.25	45.758
1257	107	1	42	-10.803	0	0.039688	0.19909	-0.071241	36.259	0.49666	5.7406	-11.297	541	0.19909	0.16377	0.34689	0.29025	36.259	31.338	50.25	45.758
1257	108	1	47	-5.8027	0	0.039688	0.20119	-0.069145	36.589	0.8266	10.411	-6.6265	315	0.20119	0.16334	0.34598	0.28949	36.589	31.338	50.25	45.758
1257	109	1	43	-9.8027	0	0.039688	0.20503	-0.065301	37.188	1.4249	5.8123	-11.225	612	0.20503	0.16255	0.34432	0.2881	37.188	31.338	50.25	45.758
1257	110	4	43	-9.8027	0	0.039688	0.28731	0.016981	45.758	9.9954	-2.7582	-19.795	538	0.2072	0.16211	0.34338	0.28731	37.522	31.338	50.25	45.758
1257	111	3	47	-5.8027	1	0.039688	0.344	0.073663	50.25	14.487	-3.2496	-20.287	341	0.20758	0.1624	0.344	0.28603	37.522	31.338	50.25	45.6
1257	112	2	36	-16.803	0	0.039688	0.16281	-0.10752	31.338	-4.4251	4.6624	-12.375	516	0.2081	0.16281	0.34233	0.28676	37.522	31.338	50.063	45.6
1257	113	4	42	-10.803	0	0.039688	0.28626	0.015924	45.6	9.8369	-3.5997	-20.637	841	0.20774	0.16427	0.34173	0.28626	37.522	31.606	50.063	45.6
1257	114	NaN	NaN	0	0	0.039688	0	0	0	0	0	0	0	0	0	0	0	0	0	0	0
1257	115	2	28	-24.803	0	0.039688	0.16465	-0.10568	31.606	-4.1572	-3.6056	-20.643	717	0.20823	0.16465	0.34253	0.28458	37.522	31.606	50.063	45.393
1257	116	4	41	-11.803	0	0.039688	0.28497	0.014634	45.393	9.63	-4.3928	-21.43	289	0.20851	0.16353	0.343	0.28497	37.522	31.398	50.063	45.393
1257	117	1	39	-13.803	0	0.039688	0.20911	-0.061228	37.522	1.759	1.4783	-15.559	274	0.20911	0.16399	0.34397	0.28293	37.522	31.398	50.063	45.14
1257	118	3	38	-14.803	1	0.039688	0.34373	0.073396	50.063	14.3	-12.063	-29.1	569	0.20966	0.16388	0.34373	0.28273	37.607	31.398	50.063	45.14
1257	119	4	40	-12.803	0	0.039688	0.28539	0.015059	45.14	9.3776	-5.1403	-22.177	310	0.21164	0.16542	0.33755	0.28539	37.607	31.398	49.37	45.14
1257	120	3	39	-13.803	1	0.039688	0.33868	0.068343	49.37	13.607	-10.37	-27.407	1396	0.21234	0.16597	0.33868	0.28301	37.607	31.398	49.37	44.845
1257	121	3	32	-20.803	1	0.039688	0.3334	0.063066	48.774	13.011	-16.774	-33.811	766	0.21404	0.1673	0.3334	0.28527	37.607	31.398	48.774	44.845
1257	122	4	26	-26.803	0	0.039688	0.28888	0.018548	44.845	9.0821	-18.845	-35.882	663	0.21675	0.16942	0.32495	0.28888	37.607	31.398	47.809	44.845
1257	123	1	26	-26.803	0	0.039688	0.21942	-0.050915	37.607	1.844	-11.607	-28.644	313	0.21942	0.1715	0.32895	0.28013	37.607	31.398	47.809	43.762
1257	124	2	17	-35.803	0	0.039688	0.17249	-0.097844	31.398	-4.3644	-14.398	-31.435	2714	0.21492	0.17249	0.33085	0.28175	36.94	31.398	47.809	43.762
1257	125	4	22	-30.803	0	0.039688	0.28333	0.012992	43.762	7.999	-21.762	-38.799	417	0.21612	0.16785	0.3327	0.28333	36.94	30.571	47.809	43.762
1257	126	1	22	-30.803	0	0.039688	0.21913	-0.051205	36.94	1.1769	-14.94	-31.977	323	0.21913	0.17019	0.33733	0.27336	36.94	30.571	47.809	42.511
1257	127	4	19	-33.803	0	0.039688	0.27538	0.0050441	42.511	6.7483	-23.511	-40.548	359	0.21335	0.17145	0.33982	0.27538	36.081	30.571	47.809	42.511
1257	128	3	19	-33.803	1	0.039688	0.34478	0.074447	47.809	12.047	-28.809	-45.847	872	0.21647	0.17395	0.34478	0.26481	36.081	30.571	47.809	41.16
1257	129	1	24	-28.803	0	0.039688	0.22132	-0.049014	36.081	0.31823	-12.081	-29.118	374	0.22132	0.17785	0.33009	0.27074	36.081	30.571	46.154	41.16
1257	130	1	23	-29.803	0	0.039688	0.21661	-0.053727	35.387	-0.37611	-12.387	-29.424	441	0.21661	0.17892	0.33209	0.27238	35.387	30.571	46.154	41.16
1257	131	1	28	-24.803	0	0.039688	0.21185	-0.058483	34.675	-1.088	-6.6747	-23.712	324	0.21185	0.18001	0.3341	0.27404	34.675	30.571	46.154	41.16
1257	132	2	23	-29.803	0	0.039688	0.18059	-0.089746	30.571	-5.1919	-7.5708	-24.608	1423	0.20932	0.18059	0.33518	0.27492	34.291	30.571	46.154	41.16
1257	133	4	32	-20.803	0	0.039688	0.27577	0.0054344	41.16	5.397	-9.1598	-26.197	453	0.20997	0.17805	0.33622	0.27577	34.291	30.136	46.154	41.16
1257	134	4	35	-17.803	0	0.039688	0.27161	0.0012812	40.633	4.8706	-5.6333	-22.67	735	0.21117	0.17907	0.33815	0.27161	34.291	30.136	46.154	40.633
1257	135	4	38	-14.803	0	0.039688	0.26908	-0.0012535	40.31	4.5468	-2.3095	-19.347	725	0.21191	0.17969	0.33932	0.26908	34.291	30.136	46.154	40.31
1257	136	1	38	-14.803	0	0.039688	0.21221	-0.058126	34.291	-1.4716	3.7089	-13.328	573	0.21221	0.17994	0.3398	0.26805	34.291	30.136	46.154	40.177
1257	137	4	37	-15.803	0	0.039688	0.26756	-0.0027707	40.177	4.4141	-3.1768	-20.214	463	0.21363	0.17962	0.33919	0.26756	34.504	30.136	46.154	40.177
1257	138	1	37	-15.803	0	0.039688	0.21404	-0.056294	34.504	-1.2585	2.4957	-14.541	875	0.21404	0.17997	0.33985	0.26615	34.504	30.136	46.154	39.994
1257	139	4	35	-17.803	0	0.039688	0.26582	-0.0045132	39.994	4.2315	-4.9942	-22.031	375	0.215	0.17975	0.33943	0.26582	34.648	30.136	46.154	39.994
1257	140	1	32	-20.803	0	0.039688	0.21565	-0.054686	34.648	-1.115	-2.6477	-19.685	647	0.21565	0.18029	0.34046	0.2636	34.648	30.136	46.154	39.707
1257	141	4	31	-21.803	0	0.039688	0.26395	-0.0063878	39.707	3.9444	-8.7072	-25.744	481	0.21463	0.18053	0.3409	0.26395	34.496	30.136	46.154	39.707
1257	142	1	31	-21.803	0	0.039688	0.21575	-0.054586	34.496	-1.2672	-3.4955	-20.533	475	0.21575	0.18147	0.34268	0.26011	34.496	30.136	46.154	39.207
1257	143	3	33	-19.803	1	0.039688	0.34327	0.072933	46.154	10.391	-13.154	-30.191	317	0.2144	0.18178	0.34327	0.26055	34.295	30.136	46.154	39.207
1257	144	2	19	-33.803	0	0.039688	0.18364	-0.086691	30.136	-5.627	-11.136	-28.173	485	0.2166	0.18364	0.33654	0.26322	34.295	30.136	45.398	39.207
1257	145	2	16	-36.803	0	0.039688	0.17987	-0.090468	29.496	-6.2671	-13.496	-30.533	430	0.2176	0.17987	0.33809	0.26444	34.295	29.496	45.398	39.207
1257	146	3	24	-28.803	1	0.039688	0.33995	0.069613	45.398	9.635	-21.398	-38.435	541	0.21879	0.17537	0.33995	0.26589	34.295	28.72	45.398	39.207
1257	147	1	25	-27.803	0	0.039688	0.2224	-0.047937	34.295	-1.4681	-9.2946	-26.332	627	0.2224	0.17826	0.32908	0.27027	34.295	28.72	44.168	39.207
1257	148	4	24	-28.803	0	0.039688	0.27153	0.0012001	39.207	3.444	-15.207	-32.244	257	0.21875	0.17909	0.33062	0.27153	33.76	28.72	44.168	39.207
1257	149	1	23	-29.803	0	0.039688	0.2208	-0.049538	33.76	-2.0023	-10.76	-27.798	483	0.2208	0.18076	0.33371	0.26473	33.76	28.72	44.168	38.333
1258	1	1	12	-37.9	1	0.063984	0.25	-0.34751	0	-42.668	12	4.7746	1041	0.25	0.25	0.25	0.25	0	0	0	0
1258	2	2	1	-48.9	0	0.063984	0.24484	-0.35267	0	-42.668	1	-6.2254	886	0.26548	0.24484	0.24484	0.24484	1.2651	0	0	0
1258	3	3	33	-16.9	0	0.063984	0.24443	-0.35308	0	-42.668	33	25.775	466	0.26504	0.24609	0.24443	0.24443	1.2651	0.10543	0	0
1258	4	4	35	-14.9	0	0.063984	0.23039	-0.36712	0	-42.668	35	27.775	347	0.24982	0.23195	0.28784	0.23039	1.2651	0.10543	3.4792	0
1258	5	4	36	-13.9	1	0.063984	0.27488	-0.32263	3.69	-38.978	32.31	25.085	335	0.23538	0.21854	0.2712	0.27488	1.2651	0.10543	3.4792	3.69
1258	6	1	14	-35.9	0	0.063984	0.22061	-0.3769	1.2651	-41.403	12.735	5.5094	1606	0.22061	0.20483	0.25418	0.32038	1.2651	0.10543	3.4792	7.0964
1258	7	2	9	-40.9	0	0.063984	0.20086	-0.39666	0.10543	-42.563	8.8946	1.6692	901	0.23573	0.20086	0.24925	0.31416	2.6078	0.10543	3.4792	7.0964
1258	8	3	39	-10.9	0	0.063984	0.24619	-0.35132	3.4792	-39.189	35.521	28.295	331	0.23284	0.21066	0.24619	0.31031	2.6078	1.0432	3.4792	7.0964
1258	9	4	37	-12.9	0	0.063984	0.29091	-0.3066	7.0964	-35.572	29.904	22.678	353	0.21829	0.1975	0.2933	0.29091	2.6078	1.0432	7.2241	7.0964
1258	10	3	42	-7.9	0	0.063984	0.27539	-0.32212	7.2241	-35.444	34.776	27.551	342	0.20496	0.18544	0.27539	0.33421	2.6078	1.0432	7.2241	10.249
1258	11	3	42	-7.9	1	0.063984	0.32457	-0.27294	10.89	-31.778	31.11	23.884	909	0.19105	0.17285	0.32457	0.31152	2.6078	1.0432	10.89	10.249
1258	12	4	43	-6.9	0	0.063984	0.28958	-0.30794	10.249	-32.419	32.751	25.525	405	0.17759	0.16067	0.37216	0.28958	2.6078	1.0432	14.17	10.249
1258	13	4	40	-9.9	0	0.063984	0.33704	-0.26047	13.702	-28.966	26.298	19.073	1351	0.16573	0.14994	0.34729	0.33704	2.6078	1.0432	14.17	13.702
1258	14	3	37	-12.9	0	0.063984	0.32597	-0.27155	14.17	-28.498	22.83	15.604	455	0.15555	0.14073	0.32597	0.37775	2.6078	1.0432	14.17	16.475
1258	15	3	39	-10.9	1	0.063984	0.36066	-0.23685	16.577	-26.091	22.423	15.197	381	0.14754	0.13349	0.36066	0.3583	2.6078	1.0432	16.577	16.475
1258	16	4	40	-9.9	0	0.063984	0.33837	-0.25914	16.475	-26.194	23.525	16.3	388	0.13934	0.12606	0.39622	0.33837	2.6078	1.0432	18.941	16.475
1258	17	4	35	-14.9	1	0.063984	0.37476	-0.22275	18.955	-23.714	16.045	8.8197	352	0.13167	0.11913	0.37443	0.37476	2.6078	1.0432	18.941	18.955
1258	18	4	37	-12.9	1	0.063984	0.40045	-0.19707	20.646	-22.022	16.354	9.1281	265	0.12626	0.11424	0.35905	0.40045	2.6078	1.0432	18.941	20.646
1258	19	2	25	-24.9	0	0.063984	0.10914	-0.48837	1.0432	-41.625	23.957	16.731	1100	0.12063	0.10914	0.34303	0.4272	2.6078	1.0432	18.941	22.371
1258	20	3	42	-7.9	0	0.063984	0.33659	-0.26092	18.941	-23.727	23.059	15.833	685	0.11837	0.12587	0.33659	0.41917	2.6078	3.5689	18.941	22.371
1258	21	3	46	-3.9	0	0.063984	0.37215	-0.22536	21.372	-21.296	24.628	17.402	489	0.11202	0.11912	0.37215	0.3967	2.6078	3.5689	21.372	22.371
1258	22	3	49	-0.9	1	0.063984	0.41172	-0.18579	23.969	-18.7	25.031	17.806	276	0.10496	0.11162	0.41172	0.3717	2.6078	3.5689	23.969	22.371
1258	23	4	31	-18.9	0	0.063984	0.34553	-0.25198	22.371	-20.298	8.6294	1.404	285	0.09757	0.10376	0.45314	0.34553	2.6078	3.5689	26.608	22.371
1258	24	1	21	-28.9	0	0.063984	0.09559	-0.50192	2.6078	-40.061	18.392	11.167	329	0.09559	0.10165	0.44394	0.35881	2.6078	3.5689	26.608	23.28
1258	25	3	49	-0.9	1	0.063984	0.43841	-0.1591	26.608	-16.061	22.392	15.167	288	0.10687	0.10039	0.43841	0.35434	4.5468	3.5689	26.608	23.28
1258	26	4	29	-20.9	0	0.063984	0.3307	-0.26681	23.28	-19.388	5.7196	-1.5058	363	0.099738	0.093689	0.47588	0.3307	4.5468	3.5689	28.969	23.28
1258	27	3	49	-0.9	1	0.063984	0.46977	-0.12775	28.969	-13.7	20.031	12.806	252	0.098457	0.092485	0.46977	0.33929	4.5468	3.5689	28.969	23.883
1258	28	3	49	-0.9	1	0.063984	0.50351	-0.094002	31.08	-11.588	17.92	10.694	367	0.092191	0.0866	0.50351	0.3177	4.5468	3.5689	31.08	23.883
1258	29	3	46	-3.9	1	0.063984	0.53368	-0.063833	32.97	-9.6987	13.03	5.8049	257	0.086589	0.081337	0.53368	0.29839	4.5468	3.5689	32.97	23.883
1258	30	3	43	-6.9	1	0.063984	0.55548	-0.042036	34.343	-8.3249	8.6565	1.4311	448	0.082542	0.077535	0.55548	0.28445	4.5468	3.5689	34.343	23.883
1258	31	3	42	-7.9	1	0.063984	0.56984	-0.027667	35.256	-7.4122	6.7439	-0.48153	444	0.079874	0.075029	0.56984	0.27525	4.5468	3.5689	35.256	23.883
1258	32	4	25	-24.9	0	0.063984	0.26814	-0.32937	23.883	-18.785	1.1166	-6.1088	350	0.07781	0.073091	0.58096	0.26814	4.5468	3.5689	35.967	23.883
1258	33	3	35	-14.9	1	0.063984	0.57978	-0.017729	35.967	-6.7012	-0.96712	-8.1925	408	0.077653	0.072943	0.57978	0.26962	4.5468	3.5689	35.967	24.001
1258	34	3	38	-11.9	1	0.063984	0.57819	-0.019319	35.865	-6.8032	2.1348	-5.0906	367	0.077947	0.073219	0.57819	0.27064	4.5468	3.5689	35.865	24.001
1258	35	3	39	-10.9	1	0.063984	0.5817	-0.015811	36.09	-6.5781	2.9098	-4.3156	418	0.077298	0.07261	0.5817	0.26839	4.5468	3.5689	36.09	24.001
1258	36	3	36	-13.9	1	0.063984	0.58647	-0.011042	36.397	-6.2713	-0.39701	-7.6224	405	0.076417	0.071782	0.58647	0.26533	4.5468	3.5689	36.397	24.001
1258	37	3	37	-12.9	1	0.063984	0.58582	-0.011692	36.355	-6.3132	0.64485	-6.5806	327	0.076537	0.071895	0.58582	0.26575	4.5468	3.5689	36.355	24.001
1258	38	3	37	-12.9	1	0.063984	0.58688	-0.010637	36.423	-6.2452	0.57686	-6.6485	961	0.076342	0.071712	0.58688	0.26507	4.5468	3.5689	36.423	24.001
1258	39	3	37	-12.9	1	0.063984	0.58782	-0.0096938	36.484	-6.1844	0.51604	-6.7094	1486	0.076168	0.071548	0.58782	0.26447	4.5468	3.5689	36.484	24.001
1258	40	3	36	-13.9	1	0.063984	0.58866	-0.0088507	36.538	-6.13	-0.53836	-7.7638	2268	0.076012	0.071402	0.58866	0.26392	4.5468	3.5689	36.538	24.001
1258	41	4	36	-13.9	0	0.063984	0.26449	-0.33302	24.001	-18.667	11.999	4.7735	1351	0.076175	0.071554	0.58778	0.26449	4.5468	3.5689	36.482	24.001
1258	42	4	34	-15.9	0	0.063984	0.28053	-0.31698	25.266	-17.402	8.7338	1.5084	380	0.074513	0.069994	0.57496	0.28053	4.5468	3.5689	36.482	25.266
1258	43	2	20	-29.9	0	0.063984	0.068822	-0.52869	3.5689	-39.099	16.431	9.2057	658	0.073266	0.068822	0.56534	0.29258	4.5468	3.5689	36.482	26.187
1258	44	3	38	-11.9	1	0.063984	0.56081	-0.0367	36.482	-6.1868	1.5184	-5.707	382	0.07268	0.076274	0.56081	0.29023	4.5468	5.3012	36.482	26.187
1258	45	3	35	-14.9	1	0.063984	0.56333	-0.034179	36.642	-6.0267	-1.6417	-8.8671	340	0.072262	0.075836	0.56333	0.28857	4.5468	5.3012	36.642	26.187
1258	46	4	21	-28.9	0	0.063984	0.29037	-0.30714	26.187	-16.481	-5.187	-12.412	319	0.072713	0.076309	0.56061	0.29037	4.5468	5.3012	36.469	26.187
1258	47	3	38	-11.9	1	0.063984	0.56626	-0.031251	36.469	-6.1997	1.5314	-5.694	247	0.073447	0.077079	0.56626	0.28321	4.5468	5.3012	36.469	25.64
1258	48	3	41	-8.9	1	0.063984	0.5688	-0.028715	36.63	-6.0383	4.3699	-2.8555	1193	0.073017	0.076628	0.5688	0.28156	4.5468	5.3012	36.63	25.64
1258	49	3	46	-3.9	1	0.063984	0.57601	-0.0215	37.091	-5.5776	8.9092	1.6838	801	0.071796	0.075346	0.57601	0.27685	4.5468	5.3012	37.091	25.64
1258	50	3	51	1.1	1	0.063984	0.59062	-0.0068939	38.03	-4.6383	12.97	5.7445	708	0.069322	0.07275	0.59062	0.26731	4.5468	5.3012	38.03	25.64
1258	51	3	54	4.1	1	0.063984	0.61159	0.014081	39.397	-3.2709	14.603	7.3771	614	0.065771	0.069023	0.61159	0.25361	4.5468	5.3012	39.397	25.64
1258	52	3	56	6.1	1	0.063984	0.63472	0.037208	40.937	-1.7314	15.063	7.8376	558	0.061854	0.064913	0.63472	0.23851	4.5468	5.3012	40.937	25.64
1258	53	3	54	4.1	1	0.063984	0.65794	0.060429	42.525	-0.14328	11.475	4.2495	298	0.057922	0.060787	0.65794	0.22335	4.5468	5.3012	42.525	25.64
1258	54	3	52	2.1	1	0.063984	0.67514	0.077631	43.735	1.0665	8.2651	1.0397	1475	0.055009	0.05773	0.67514	0.21212	4.5468	5.3012	43.735	25.64
1258	55	3	52	2.1	1	0.063984	0.68725	0.089738	44.606	1.9379	7.3937	0.16834	926	0.052959	0.055578	0.68725	0.20421	4.5468	5.3012	44.606	25.64
1258	56	3	50	0.1	1	0.063984	0.69787	0.10036	45.386	2.7174	4.6142	-2.6112	719	0.051161	0.053691	0.69787	0.19728	4.5468	5.3012	45.386	25.64
1258	57	3	54	4.1	1	0.063984	0.70439	0.10688	45.872	3.2039	8.1278	0.90235	269	0.050057	0.052532	0.70439	0.19302	4.5468	5.3012	45.872	25.64
1258	58	3	54	4.1	1	0.063984	0.71568	0.11817	46.729	4.0608	7.2709	0.045451	442	0.048145	0.050526	0.71568	0.18565	4.5468	5.3012	46.729	25.64
1258	59	3	56	6.1	1	0.063984	0.72555	0.12804	47.496	4.8273	8.5043	1.2789	320	0.046473	0.048772	0.72555	0.1792	4.5468	5.3012	47.496	25.64
1258	60	3	62	12.1	1	0.063984	0.73683	0.13932	48.392	5.7239	13.608	6.3823	71	0.044564	0.046768	0.73683	0.17184	4.5468	5.3012	48.392	25.64
1258	61	4	19	-30.9	0	0.063984	0.16047	-0.43704	25.64	-17.028	-6.6401	-13.866	1796	0.041616	0.043674	0.75424	0.16047	4.5468	5.3012	49.827	25.64
1258	62	3	61	11.1	1	0.063984	0.75958	0.16206	49.827	7.1586	11.173	3.9476	313	0.041911	0.043983	0.75958	0.15453	4.5468	5.3012	49.827	24.94
1258	63	1	36	-13.9	0	0.063984	0.039558	-0.55795	4.5468	-38.122	31.453	24.228	335	0.039558	0.041515	0.77307	0.14586	4.5468	5.3012	51.005	24.94
1258	64	3	64	14.1	1	0.063984	0.76591	0.1684	51.005	8.3366	12.995	5.7697	336	0.048456	0.04113	0.76591	0.14451	7.8629	5.3012	51.005	24.94
1258	65	3	63	13.1	1	0.063984	0.78126	0.18375	52.375	9.7066	10.625	3.3996	390	0.045278	0.038433	0.78126	0.13503	7.8629	5.3012	52.375	24.94
1258	66	3	61	11.1	1	0.063984	0.79326	0.19575	53.495	10.827	7.5048	0.27944	435	0.042794	0.036325	0.79326	0.12762	7.8629	5.3012	53.495	24.94
1258	67	3	63	13.1	1	0.063984	0.80144	0.20393	54.286	11.618	8.7136	1.4882	360	0.041101	0.034887	0.80144	0.12257	7.8629	5.3012	54.286	24.94
1258	68	3	62	12.1	1	0.063984	0.81063	0.21312	55.205	12.537	6.795	-0.43046	412	0.039199	0.033273	0.81063	0.1169	7.8629	5.3012	55.205	24.94
1258	69	3	59	9.1	1	0.063984	0.81756	0.22005	55.921	13.253	3.0786	-4.1468	267	0.037763	0.032054	0.81756	0.11262	7.8629	5.3012	55.921	24.94
1258	70	3	57	7.1	1	0.063984	0.82064	0.22313	56.246	13.578	0.754	-6.4714	518	0.037126	0.031514	0.82064	0.11072	7.8629	5.3012	56.246	24.94
1258	71	3	57	7.1	1	0.063984	0.82139	0.22388	56.325	13.657	0.6745	-6.5509	261	0.036972	0.031382	0.82139	0.11026	7.8629	5.3012	56.325	24.94
1258	72	3	53	3.1	1	0.063984	0.82206	0.22454	56.397	13.728	-3.3966	-10.622	305	0.036834	0.031265	0.82206	0.10985	7.8629	5.3012	56.397	24.94
1258	73	3	54	4.1	1	0.063984	0.81868	0.22117	56.039	13.37	-2.0385	-9.2639	845	0.037532	0.031858	0.81868	0.11193	7.8629	5.3012	56.039	24.94
1258	74	3	54	4.1	1	0.063984	0.81663	0.21912	55.824	13.155	-1.8236	-9.049	490	0.037957	0.032219	0.81663	0.1132	7.8629	5.3012	55.824	24.94
1258	75	3	50	0.1	1	0.063984	0.81478	0.21727	55.631	12.963	-5.6313	-12.857	424	0.03834	0.032543	0.81478	0.11434	7.8629	5.3012	55.631	24.94
1258	76	3	52	2.1	1	0.063984	0.80898	0.21147	55.038	12.369	-3.0376	-10.263	269	0.039541	0.033563	0.80898	0.11792	7.8629	5.3012	55.038	24.94
1258	77	3	51	1.1	1	0.063984	0.80579	0.20828	54.717	12.049	-3.7174	-10.943	31	0.0402	0.034123	0.80579	0.11989	7.8629	5.3012	54.717	24.94
1258	78	3	53	3.1	1	0.063984	0.80184	0.20432	54.325	11.657	-1.3255	-8.5509	287	0.041019	0.034818	0.80184	0.12233	7.8629	5.3012	54.325	24.94
1258	79	3	53	3.1	1	0.063984	0.80041	0.2029	54.186	11.517	-1.1857	-8.4111	374	0.041314	0.035068	0.80041	0.12321	7.8629	5.3012	54.186	24.94
1258	80	3	57	7.1	1	0.063984	0.79913	0.20162	54.061	11.392	2.9393	-4.2861	321	0.041579	0.035293	0.79913	0.124	7.8629	5.3012	54.061	24.94
1258	81	3	56	6.1	1	0.063984	0.8023	0.20478	54.371	11.702	1.6294	-5.596	339	0.040924	0.034737	0.8023	0.12204	7.8629	5.3012	54.371	24.94
1258	82	3	54	4.1	1	0.063984	0.80403	0.20652	54.542	11.874	-0.54238	-7.7678	316	0.040564	0.034432	0.80403	0.12097	7.8629	5.3012	54.542	24.94
1258	83	3	57	7.1	1	0.063984	0.80346	0.20594	54.485	11.817	2.5148	-4.7106	1149	0.040684	0.034533	0.80346	0.12133	7.8629	5.3012	54.485	24.94
1258	84	3	59	9.1	1	0.063984	0.80612	0.20861	54.75	12.082	4.2497	-2.9757	560	0.040132	0.034065	0.80612	0.11968	7.8629	5.3012	54.75	24.94
1258	85	3	57	7.1	1	0.063984	0.81056	0.21305	55.198	12.53	1.8016	-5.4238	292	0.039213	0.033284	0.81056	0.11694	7.8629	5.3012	55.198	24.94
1258	86	3	58	8.1	1	0.063984	0.81242	0.21491	55.388	12.72	2.6117	-4.6137	688	0.038828	0.032958	0.81242	0.11579	7.8629	5.3012	55.388	24.94
1258	87	3	57	7.1	1	0.063984	0.81509	0.21758	55.664	12.995	1.3363	-5.8891	1469	0.038275	0.032489	0.81509	0.11414	7.8629	5.3012	55.664	24.94
1258	88	4	34	-15.9	0	0.063984	0.11331	-0.4842	24.94	-17.728	9.06	1.8346	1159	0.037995	0.032251	0.81645	0.11331	7.8629	5.3012	55.805	24.94
1258	89	3	58	8.1	1	0.063984	0.81066	0.21315	55.805	13.136	2.1955	-5.03	306	0.037725	0.032022	0.81066	0.1196	7.8629	5.3012	55.805	25.895
1258	90	3	60	10.1	1	0.063984	0.81292	0.21541	56.036	13.368	3.964	-3.2614	1227	0.037274	0.031639	0.81292	0.11817	7.8629	5.3012	56.036	25.895
1258	91	3	55	5.1	1	0.063984	0.81695	0.21944	56.454	13.786	-1.4539	-8.6793	747	0.036471	0.030957	0.81695	0.11562	7.8629	5.3012	56.454	25.895
1258	92	2	21	-28.9	0	0.063984	0.031206	-0.56631	5.3012	-37.367	15.699	8.4734	295	0.036764	0.031206	0.81548	0.11655	7.8629	5.3012	56.301	25.895
1258	93	3	63	13.1	1	0.063984	0.81265	0.21514	56.301	13.632	6.6994	-0.52605	314	0.036636	0.034572	0.81265	0.11614	7.8629	6.9563	56.301	25.895
1258	94	3	67	17.1	1	0.063984	0.81943	0.22192	57.007	14.339	9.993	2.7676	1208	0.03531	0.03332	0.81943	0.11194	7.8629	6.9563	57.007	25.895
1258	95	3	66	16.1	1	0.063984	0.82919	0.23168	58.061	15.392	7.9395	0.71409	349	0.033401	0.031519	0.82919	0.10589	7.8629	6.9563	58.061	25.895
1258	96	1	23	-26.9	0	0.063984	0.031944	-0.56557	7.8629	-34.805	15.137	7.9117	334	0.031944	0.030144	0.83664	0.10127	7.8629	6.9563	58.898	25.895
1258	97	3	64	14.1	1	0.063984	0.83378	0.23627	58.898	16.229	5.1024	-2.123	305	0.035257	0.03004	0.83378	0.10092	9.4588	6.9563	58.898	25.895
1258	98	3	69	19.1	1	0.063984	0.8385	0.24099	59.436	16.767	9.5645	2.3391	482	0.034257	0.029188	0.8385	0.098058	9.4588	6.9563	59.436	25.895
1258	99	3	72	22.1	1	0.063984	0.84704	0.24953	60.444	17.776	11.556	4.3307	509	0.032444	0.027643	0.84704	0.092868	9.4588	6.9563	60.444	25.895
1258	100	3	72	22.1	1	0.063984	0.85687	0.25936	61.662	18.994	10.338	3.1124	1041	0.030359	0.025867	0.85687	0.0869	9.4588	6.9563	61.662	25.895
1258	101	3	72	22.1	1	0.063984	0.86522	0.2677	62.752	20.084	9.2479	2.0225	527	0.028589	0.024359	0.86522	0.081836	9.4588	6.9563	62.752	25.895
1258	102	4	47	-2.9	0	0.063984	0.077518	-0.51999	25.895	-16.773	21.105	13.879	536	0.027081	0.023074	0.87233	0.077518	9.4588	6.9563	63.727	25.895
1258	103	3	77	27.1	1	0.063984	0.8621	0.26459	63.727	21.059	13.273	6.0475	472	0.026764	0.022804	0.8621	0.088331	9.4588	6.9563	63.727	28.12
1258	104	4	48	-1.9	0	0.063984	0.081731	-0.51578	28.12	-14.548	19.88	12.654	934	0.024764	0.0211	0.8724	0.081731	9.4588	6.9563	65.126	28.12
1258	105	3	83	33.1	1	0.063984	0.86229	0.26478	65.126	22.458	17.874	10.648	374	0.024477	0.020855	0.86229	0.092377	9.4588	6.9563	65.126	30.216
1258	106	2	17	-32.9	0	0.063984	0.01878	-0.57873	6.9563	-35.712	10.044	2.8183	928	0.022041	0.01878	0.87599	0.083186	9.4588	6.9563	67.011	30.216
1258	107	3	83	33.1	1	0.063984	0.87484	0.27733	67.011	24.343	15.989	8.7637	299	0.022012	0.02007	0.87484	0.083076	9.4588	8.0152	67.011	30.216
1258	108	3	82	32.1	1	0.063984	0.88618	0.28867	68.697	26.028	13.303	6.078	311	0.020018	0.018252	0.88618	0.075549	9.4588	8.0152	68.697	30.216
1258	109	1	30	-19.9	0	0.063984	0.01848	-0.57903	9.4588	-33.21	20.541	13.316	600	0.01848	0.01685	0.89492	0.069745	9.4588	8.0152	70.099	30.216
1258	110	3	78	28.1	1	0.063984	0.89247	0.29496	70.099	27.431	7.9009	0.67545	443	0.021169	0.016804	0.89247	0.069554	11.624	8.0152	70.099	30.216
1258	111	4	35	-14.9	0	0.063984	0.066315	-0.5312	30.216	-12.452	4.7838	-2.4416	555	0.020183	0.016021	0.89748	0.066315	11.624	8.0152	70.932	30.216
1258	112	3	82	32.1	1	0.063984	0.89553	0.29802	70.932	28.264	11.068	3.8425	402	0.020139	0.015986	0.89553	0.068341	11.624	8.0152	70.932	30.721
1258	113	2	19	-30.9	0	0.063984	0.014948	-0.58256	8.0152	-34.653	10.985	3.7594	507	0.018832	0.014948	0.90232	0.063904	11.624	8.0152	72.099	30.721
1258	114	3	79	29.1	1	0.063984	0.90128	0.30377	72.099	29.431	6.901	-0.3244	284	0.01881	0.01608	0.90128	0.063831	11.624	9.1733	72.099	30.721
1258	115	4	33	-16.9	0	0.063984	0.061202	-0.53631	30.721	-11.948	2.2795	-4.9459	451	0.018035	0.015418	0.90534	0.061202	11.624	9.1733	72.827	30.721
1258	116	3	79	29.1	1	0.063984	0.90449	0.30697	72.827	30.158	6.1734	-1.052	602	0.018018	0.015403	0.90449	0.062092	11.624	9.1733	72.827	30.961
1258	117	4	35	-14.9	0	0.063984	0.059792	-0.53772	30.961	-11.708	4.0391	-3.1863	331	0.017351	0.014832	0.90802	0.059792	11.624	9.1733	73.477	30.961
1258	118	3	77	27.1	1	0.063984	0.90653	0.30902	73.477	30.809	3.5226	-3.7028	417	0.017322	0.014808	0.90653	0.061342	11.624	9.1733	73.477	31.387
1258	119	4	40	-9.9	0	0.063984	0.060034	-0.53748	31.387	-11.282	8.6133	1.3879	625	0.016953	0.014492	0.90852	0.060034	11.624	9.1733	73.849	31.387
1258	120	3	74	24.1	1	0.063984	0.90527	0.30776	73.849	31.18	0.1512	-7.0742	363	0.016892	0.01444	0.90527	0.063398	11.624	9.1733	73.849	32.295
1258	121	3	71	21.1	1	0.063984	0.90536	0.30785	73.865	31.196	-2.8647	-10.09	267	0.016877	0.014427	0.90536	0.063339	11.624	9.1733	73.865	32.295
1258	122	3	71	21.1	1	0.063984	0.90369	0.30618	73.563	30.894	-2.5627	-9.7881	483	0.017174	0.014681	0.90369	0.064456	11.624	9.1733	73.563	32.295
1258	123	3	67	17.1	1	0.063984	0.90217	0.30466	73.293	30.624	-6.2925	-13.518	425	0.017444	0.014912	0.90217	0.06547	11.624	9.1733	73.293	32.295
1258	124	3	71	21.1	1	0.063984	0.89836	0.30085	72.629	29.961	-1.6291	-8.8545	361	0.018124	0.015493	0.89836	0.06802	11.624	9.1733	72.629	32.295
1258	125	3	69	19.1	1	0.063984	0.89735	0.29984	72.457	29.789	-3.4574	-10.683	354	0.018304	0.015647	0.89735	0.068695	11.624	9.1733	72.457	32.295
1258	126	1	12	-37.9	0	0.063984	0.01869	-0.57882	11.624	-31.044	0.37556	-6.8498	727	0.01869	0.015977	0.89519	0.070146	11.624	9.1733	72.093	32.295
1258	127	3	63	13.1	1	0.063984	0.89514	0.29763	72.093	29.425	-9.0929	-16.318	381	0.018737	0.015977	0.89514	0.070143	11.664	9.1733	72.093	32.295
1258	128	2	11	-38.9	0	0.063984	0.016875	-0.58064	9.1733	-33.495	1.8267	-5.3987	317	0.019791	0.016875	0.88925	0.074088	11.664	9.1733	71.134	32.295
1258	129	3	62	12.1	1	0.063984	0.88906	0.29155	71.134	28.466	-9.1342	-16.36	125	0.019787	0.017081	0.88906	0.074073	11.664	9.3659	71.134	32.295
1258	130	3	61	11.1	1	0.063984	0.88283	0.28532	70.171	27.503	-9.1712	-16.397	1084	0.020897	0.018039	0.88283	0.078229	11.664	9.3659	70.171	32.295
1258	131	3	61	11.1	1	0.063984	0.87628	0.27877	69.204	26.536	-8.2043	-15.43	381	0.022065	0.019048	0.87628	0.082604	11.664	9.3659	69.204	32.295
1258	132	3	67	17.1	1	0.063984	0.87016	0.27264	68.339	25.671	-1.3393	-8.5647	901	0.023158	0.019991	0.87016	0.086694	11.664	9.3659	68.339	32.295
1258	133	3	69	19.1	1	0.063984	0.86913	0.27162	68.198	25.53	0.80189	-6.4235	360	0.023341	0.020149	0.86913	0.087378	11.664	9.3659	68.198	32.295
1258	134	3	67	17.1	1	0.063984	0.86975	0.27223	68.283	25.614	-1.2827	-8.5081	358	0.023231	0.020054	0.86975	0.086968	11.664	9.3659	68.283	32.295
1258	135	3	66	16.1	1	0.063984	0.86876	0.27125	68.147	25.479	-2.1474	-9.3728	852	0.023407	0.020206	0.86876	0.087625	11.664	9.3659	68.147	32.295
1258	136	3	67	17.1	1	0.063984	0.8671	0.26959	67.921	25.253	-0.92103	-8.1464	357	0.023703	0.020462	0.8671	0.088733	11.664	9.3659	67.921	32.295
1258	137	3	66	16.1	1	0.063984	0.86638	0.26887	67.824	25.156	-1.8239	-9.0493	358	0.023831	0.020572	0.86638	0.089212	11.664	9.3659	67.824	32.295
1258	138	3	65	15.1	1	0.063984	0.86495	0.26744	67.632	24.963	-2.6316	-9.857	404	0.024086	0.020792	0.86495	0.090168	11.664	9.3659	67.632	32.295
1258	139	3	67	17.1	1	0.063984	0.86287	0.26536	67.354	24.686	-0.35418	-7.5796	395	0.024458	0.021114	0.86287	0.091561	11.664	9.3659	67.354	32.295
1258	140	3	62	12.1	1	0.063984	0.86258	0.26507	67.317	24.648	-5.3168	-12.542	423	0.024509	0.021157	0.86258	0.09175	11.664	9.3659	67.317	32.295
1258	141	3	60	10.1	1	0.063984	0.85828	0.26077	66.756	24.088	-6.7563	-13.982	457	0.025277	0.02182	0.85828	0.094626	11.664	9.3659	66.756	32.295
1258	142	3	58	8.1	1	0.063984	0.85264	0.25513	66.044	23.376	-8.044	-15.269	274	0.026282	0.022688	0.85264	0.098388	11.664	9.3659	66.044	32.295
1258	143	3	58	8.1	1	0.063984	0.84569	0.24818	65.196	22.528	-7.1959	-14.421	359	0.027521	0.023758	0.84569	0.10303	11.664	9.3659	65.196	32.295
1258	144	3	55	5.1	1	0.063984	0.83925	0.24174	64.437	21.769	-9.4373	-16.663	306	0.02867	0.02475	0.83925	0.10733	11.664	9.3659	64.437	32.295
1258	145	3	57	7.1	1	0.063984	0.83048	0.23296	63.442	20.774	-6.4423	-13.668	668	0.030235	0.026101	0.83048	0.11319	11.664	9.3659	63.442	32.295
1258	146	3	61	11.1	1	0.063984	0.82427	0.22676	62.763	20.095	-1.7631	-8.9885	295	0.031342	0.027056	0.82427	0.11733	11.664	9.3659	62.763	32.295
1258	147	3	63	13.1	1	0.063984	0.82254	0.22503	62.577	19.909	0.42279	-6.8026	528	0.03165	0.027322	0.82254	0.11849	11.664	9.3659	62.577	32.295
1258	148	3	61	11.1	1	0.063984	0.82296	0.22544	62.622	19.953	-1.6218	-8.8472	831	0.031576	0.027258	0.82296	0.11821	11.664	9.3659	62.622	32.295
1258	149	3	57	7.1	1	0.063984	0.82136	0.22385	62.451	19.782	-5.4508	-12.676	693	0.031862	0.027505	0.82136	0.11928	11.664	9.3659	62.451	32.295
1268	1	1	12	-37.196	1	0.066328	0.25	-0.32654	0	-37.089	12	-0.10776	697	0.25	0.25	0.25	0.25	0	0	0	0
1268	2	2	1	-48.196	0	0.066328	0.24702	-0.32952	0	-37.089	1	-11.108	504	0.25895	0.24702	0.24702	0.24702	0.71118	0	0	0
1268	3	1	9	-40.196	1	0.066328	0.2587	-0.31784	0.71118	-36.377	8.2888	-3.8189	336	0.2587	0.24775	0.24678	0.24678	0.71118	0.059265	0	0
1268	4	4	35	-14.196	0	0.066328	0.24468	-0.33186	0	-37.089	35	22.892	341	0.26499	0.24564	0.24468	0.24468	1.2024	0.059265	0	0
1268	5	3	33	-16.196	0	0.066328	0.23616	-0.34038	0	-37.089	33	20.892	325	0.25576	0.23709	0.23616	0.27099	1.2024	0.059265	0	2.0743
1268	6	1	14	-35.196	0	0.066328	0.24766	-0.32888	1.2024	-35.886	12.798	0.68982	350	0.24766	0.22958	0.26035	0.26241	1.2024	0.059265	1.9557	2.0743
1268	7	3	35	-14.196	0	0.066328	0.25707	-0.31947	1.9557	-35.133	33.044	20.936	501	0.25715	0.22668	0.25707	0.2591	1.9609	0.059265	1.9557	2.0743
1268	8	4	34	-15.196	0	0.066328	0.25018	-0.32636	2.0743	-35.014	31.926	19.818	294	0.2483	0.21888	0.28265	0.25018	1.9609	0.059265	3.9141	2.0743
1268	9	2	14	-35.196	0	0.066328	0.21179	-0.36475	0.059265	-37.029	13.941	1.833	253	0.24026	0.21179	0.2735	0.27445	1.9609	0.059265	3.9141	3.9663
1268	10	3	42	-7.1959	0	0.066328	0.27027	-0.30627	3.9141	-33.174	38.086	25.978	319	0.23743	0.22109	0.27027	0.27121	1.9609	0.88546	3.9141	3.9663
1268	11	1	17	-32.196	0	0.066328	0.2275	-0.34904	1.9609	-35.128	15.039	2.9314	298	0.2275	0.21184	0.30079	0.25987	1.9609	0.88546	6.1712	3.9663
1268	12	4	43	-6.1959	0	0.066328	0.25632	-0.32022	3.9663	-33.122	39.034	26.926	297	0.23806	0.20894	0.29668	0.25632	2.8521	0.88546	6.1712	3.9663
1268	13	3	40	-9.1959	0	0.066328	0.28459	-0.29195	6.1712	-30.917	33.829	21.721	2245	0.22835	0.20042	0.28459	0.28664	2.8521	0.88546	6.1712	6.2797
1268	14	2	17	-32.196	0	0.066328	0.19263	-0.38391	0.88546	-36.203	16.115	4.0068	299	0.21947	0.19263	0.31242	0.27549	2.8521	0.88546	8.1761	6.2797
1268	15	1	8	-41.196	0	0.066328	0.21674	-0.3598	2.8521	-34.236	5.1479	-6.9599	477	0.21674	0.20267	0.30853	0.27206	2.8521	1.8405	8.1761	6.2797
1268	16	3	39	-10.196	1	0.066328	0.30717	-0.26937	8.1761	-28.912	30.824	18.716	292	0.22019	0.20178	0.30717	0.27086	3.1572	1.8405	8.1761	6.2797
1268	17	4	35	-14.196	0	0.066328	0.26055	-0.31599	6.2797	-30.809	28.72	16.613	416	0.21181	0.1941	0.33354	0.26055	3.1572	1.8405	10.003	6.2797
1268	18	NaN	NaN	0	0	0.066328	0	0	0	0	0	0	0	0	0	0	0	0	0	0	0
1268	19	3	46	-3.1959	1	0.066328	0.32347	-0.25308	10.003	-27.086	35.997	23.889	366	0.20542	0.18824	0.32347	0.28288	3.1572	1.8405	10.003	7.9818
1268	20	2	25	-24.196	0	0.066328	0.17941	-0.39713	1.8405	-35.248	23.16	11.052	284	0.19579	0.17941	0.35517	0.26963	3.1572	1.8405	12.136	7.9818
1268	21	3	46	-3.1959	1	0.066328	0.3492	-0.22734	12.136	-24.952	33.864	21.756	261	0.1925	0.19321	0.3492	0.26509	3.1572	3.213	12.136	7.9818
1268	22	3	49	-0.19595	1	0.066328	0.38002	-0.19652	14.143	-22.945	34.857	22.749	327	0.18338	0.18406	0.38002	0.25254	3.1572	3.213	14.143	7.9818
1268	23	3	46	-3.1959	1	0.066328	0.41279	-0.16375	16.209	-20.88	29.791	17.683	346	0.17369	0.17433	0.41279	0.23919	3.1572	3.213	16.209	7.9818
1268	24	4	32	-17.196	0	0.066328	0.22752	-0.34902	7.9818	-29.107	24.018	11.91	296	0.16521	0.16583	0.44144	0.22752	3.1572	3.213	17.974	7.9818
1268	25	4	29	-20.196	0	0.066328	0.24454	-0.332	9.4052	-27.683	19.595	7.487	464	0.16157	0.16217	0.43171	0.24454	3.1572	3.213	17.974	9.4052
1268	26	3	47	-2.1959	1	0.066328	0.42342	-0.15312	17.974	-19.114	29.026	16.918	290	0.15847	0.15906	0.42342	0.25905	3.1572	3.213	17.974	10.566
1268	27	3	49	-0.19595	1	0.066328	0.45149	-0.12505	19.695	-17.394	29.305	17.198	313	0.15076	0.15131	0.45149	0.24644	3.1572	3.213	19.695	10.566
1268	28	1	21	-28.196	0	0.066328	0.14288	-0.43366	3.1572	-33.931	17.843	5.735	569	0.14288	0.14341	0.48015	0.23356	3.1572	3.213	21.431	10.566
1268	29	1	18	-31.196	0	0.066328	0.15169	-0.42485	4.2147	-32.874	13.785	1.6776	301	0.15169	0.14194	0.47522	0.23116	4.2147	3.213	21.431	10.566
1268	30	3	43	-6.1959	1	0.066328	0.47124	-0.1053	21.431	-15.657	21.569	9.4608	389	0.15879	0.14075	0.47124	0.22923	5.0317	3.213	21.431	10.566
1268	31	NaN	NaN	0	0	0.066328	0	0	0	0	0	0	0	0	0	0	0	0	0	0	0
1268	32	3	39	-10.196	1	0.066328	0.4924	-0.084139	22.71	-14.379	16.29	4.1825	222	0.15244	0.13511	0.4924	0.22005	5.0317	3.213	22.71	10.566
1268	33	3	35	-14.196	1	0.066328	0.50841	-0.068132	23.675	-13.413	11.325	-0.78292	267	0.14763	0.13085	0.50841	0.21311	5.0317	3.213	23.675	10.566
1268	34	1	21	-28.196	0	0.066328	0.14429	-0.43225	5.0317	-32.057	15.968	3.8606	654	0.14429	0.12789	0.51953	0.20829	5.0317	3.213	24.346	10.566
1268	35	2	24	-25.196	0	0.066328	0.12671	-0.44983	3.213	-33.875	20.787	8.6792	700	0.15221	0.12671	0.51472	0.20636	5.978	3.213	24.346	10.566
1268	36	4	34	-15.196	0	0.066328	0.20416	-0.37238	10.566	-26.522	23.434	11.326	301	0.15059	0.13603	0.50922	0.20416	5.978	4.445	24.346	10.566
1268	37	4	38	-11.196	0	0.066328	0.21953	-0.35701	11.955	-25.133	26.045	13.937	409	0.14768	0.1334	0.49939	0.21953	5.978	4.445	24.346	11.955
1268	38	3	37	-12.196	1	0.066328	0.48784	-0.0887	24.346	-12.742	12.654	0.54592	1159	0.14427	0.13032	0.48784	0.23758	5.978	4.445	24.346	13.499
1268	39	2	16	-33.196	0	0.066328	0.12715	-0.44939	4.445	-32.644	11.555	-0.55272	1182	0.14076	0.12715	0.50027	0.23181	5.978	4.445	25.096	13.499
1268	40	1	21	-28.196	0	0.066328	0.13994	-0.4366	5.978	-31.11	15.022	2.9142	2738	0.13994	0.13228	0.49733	0.23045	5.978	5.1298	25.096	13.499
1268	41	2	20	-29.196	0	0.066328	0.13116	-0.44538	5.1298	-31.959	14.87	2.7625	385	0.1472	0.13116	0.49314	0.2285	6.8683	5.1298	25.096	13.499
1268	42	3	35	-14.196	1	0.066328	0.48927	-0.087266	25.096	-11.992	9.9038	-2.204	283	0.14604	0.13797	0.48927	0.22671	6.8683	6.011	25.096	13.499
1268	43	4	29	-20.196	0	0.066328	0.22239	-0.35415	13.499	-23.59	15.501	3.3934	483	0.14326	0.13534	0.49901	0.22239	6.8683	6.011	25.683	13.499
1268	44	4	25	-24.196	0	0.066328	0.23311	-0.34343	14.417	-22.671	10.583	-1.5252	270	0.14129	0.13348	0.49213	0.23311	6.8683	6.011	25.683	14.417
1268	45	3	35	-14.196	1	0.066328	0.4873	-0.089237	25.683	-11.405	9.3168	-2.7909	254	0.1399	0.13217	0.4873	0.24063	6.8683	6.011	25.683	15.045
1268	46	2	23	-26.196	0	0.066328	0.12981	-0.44673	6.011	-31.077	16.989	4.8812	452	0.1374	0.12981	0.49646	0.23633	6.8683	6.011	26.235	15.045
1268	47	3	38	-11.196	1	0.066328	0.49205	-0.084495	26.235	-10.853	11.765	-0.3431	276	0.13618	0.13754	0.49205	0.23423	6.8683	7.0179	26.235	15.045
1268	48	1	23	-26.196	0	0.066328	0.13308	-0.44346	6.8683	-30.22	16.132	4.0239	627	0.13308	0.13441	0.50361	0.2289	6.8683	7.0179	26.933	15.045
1268	49	3	46	-3.1959	1	0.066328	0.49926	-0.077284	26.933	-10.156	19.067	6.9597	549	0.14057	0.13325	0.49926	0.22692	7.8243	7.0179	26.933	15.045
1268	50	4	28	-21.196	0	0.066328	0.21844	-0.3581	15.045	-22.044	12.955	0.8476	366	0.13531	0.12826	0.51799	0.21844	7.8243	7.0179	28.063	15.045
1268	51	2	25	-24.196	0	0.066328	0.12682	-0.44972	7.0179	-30.071	17.982	5.8743	451	0.13379	0.12682	0.51214	0.22725	7.8243	7.0179	28.063	15.812
1268	52	2	24	-25.196	0	0.066328	0.13485	-0.44169	8.0836	-29.005	15.916	3.8086	615	0.13255	0.13485	0.50743	0.22516	7.8243	8.0836	28.063	15.812
1268	53	3	54	4.8041	1	0.066328	0.50305	-0.073491	28.063	-9.0259	25.937	13.83	332	0.13141	0.14232	0.50305	0.22322	7.8243	9.0269	28.063	15.812
1268	54	4	19	-30.196	0	0.066328	0.21178	-0.36476	15.812	-21.276	3.1876	-8.9202	1009	0.12468	0.13503	0.52851	0.21178	7.8243	9.0269	29.6	15.812
1268	55	3	52	2.8041	1	0.066328	0.5271	-0.04944	29.6	-7.4887	22.4	10.292	492	0.12435	0.13467	0.5271	0.21388	7.8243	9.0269	29.6	16.001
1268	56	1	25	-24.196	0	0.066328	0.11859	-0.45795	7.8243	-29.264	17.176	5.0679	508	0.11859	0.12844	0.54898	0.20399	7.8243	9.0269	30.927	16.001
1268	57	2	20	-29.196	0	0.066328	0.12738	-0.44916	9.0269	-28.062	10.973	-1.1346	340	0.12583	0.12738	0.54447	0.20231	8.8422	9.0269	30.927	16.001
1268	58	3	54	4.8041	1	0.066328	0.54143	-0.035108	30.927	-6.1612	23.073	10.965	419	0.12513	0.13226	0.54143	0.20118	8.8422	9.6772	30.927	16.001
1268	59	4	20	-29.196	0	0.066328	0.19135	-0.38519	16.001	-21.087	3.9987	-8.1091	571	0.11901	0.12579	0.56385	0.19135	8.8422	9.6772	32.295	16.001
1268	60	3	62	12.804	1	0.066328	0.56215	-0.014393	32.295	-4.7938	29.705	17.598	239	0.11865	0.12541	0.56215	0.19379	8.8422	9.6772	32.295	16.238
1268	61	3	62	12.804	1	0.066328	0.59065	0.014109	34.055	-3.0333	27.945	15.837	772	0.11093	0.11725	0.59065	0.18117	8.8422	9.6772	34.055	16.238
1268	62	3	61	11.804	1	0.066328	0.61692	0.04038	35.711	-1.3772	25.289	13.181	284	0.10381	0.10972	0.61692	0.16955	8.8422	9.6772	35.711	16.238
1268	63	3	61	11.804	1	0.066328	0.64012	0.063585	37.21	0.12154	23.79	11.682	344	0.097522	0.10308	0.64012	0.15928	8.8422	9.6772	37.21	16.238
1268	64	3	64	14.804	1	0.066328	0.66137	0.084834	38.62	1.5314	25.38	13.272	338	0.091764	0.096989	0.66137	0.14987	8.8422	9.6772	38.62	16.238
1268	65	3	63	13.804	1	0.066328	0.68335	0.10681	40.124	3.0356	22.876	10.768	590	0.08581	0.090696	0.68335	0.14015	8.8422	9.6772	40.124	16.238
1268	66	3	61	11.804	1	0.066328	0.70248	0.12593	41.48	4.3913	19.52	7.4124	957	0.080626	0.085217	0.70248	0.13168	8.8422	9.6772	41.48	16.238
1268	67	1	35	-14.196	0	0.066328	0.076349	-0.50019	8.8422	-28.246	26.158	14.05	264	0.076349	0.080696	0.71826	0.1247	8.8422	9.6772	42.637	16.238
1268	68	2	15	-34.196	0	0.066328	0.080034	-0.49651	9.6772	-27.411	5.3228	-6.785	247	0.083923	0.080034	0.71237	0.12367	10.392	9.6772	42.637	16.238
1268	69	4	25	-24.196	0	0.066328	0.12346	-0.45308	16.238	-20.85	8.7617	-3.3461	341	0.083781	0.081588	0.71117	0.12346	10.392	9.9927	42.637	16.238
1268	70	3	57	7.8041	1	0.066328	0.7081	0.13156	42.637	5.5482	14.363	2.2555	281	0.08342	0.081237	0.7081	0.12724	10.392	9.9927	42.637	16.758
1268	71	3	57	7.8041	1	0.066328	0.71963	0.14309	43.488	6.3994	13.512	1.4043	277	0.080125	0.078028	0.71963	0.12221	10.392	9.9927	43.488	16.758
1268	72	3	53	3.8041	1	0.066328	0.73022	0.15368	44.289	7.2002	8.7113	-3.3965	361	0.077098	0.07508	0.73022	0.1176	10.392	9.9927	44.289	16.758
1268	73	3	54	4.8041	1	0.066328	0.73692	0.16038	44.805	7.7165	9.195	-2.9128	695	0.075185	0.073218	0.73692	0.11468	10.392	9.9927	44.805	16.758
1268	74	3	54	4.8041	1	0.066328	0.74386	0.16732	45.35	8.2614	8.6501	-3.4577	731	0.0732	0.071284	0.74386	0.11165	10.392	9.9927	45.35	16.758
1268	75	3	50	0.80405	1	0.066328	0.75029	0.17375	45.863	8.7741	4.1374	-7.9703	683	0.071364	0.069496	0.75029	0.10885	10.392	9.9927	45.863	16.758
1268	76	3	52	2.8041	1	0.066328	0.75332	0.17678	46.108	9.0193	5.8922	-6.2155	391	0.070497	0.068652	0.75332	0.10753	10.392	9.9927	46.108	16.758
1268	77	2	11	-38.196	0	0.066328	0.067461	-0.50908	9.9927	-27.096	1.0073	-11.1	400	0.069274	0.067461	0.7576	0.10566	10.392	9.9927	46.457	16.758
1268	78	1	40	-9.1959	0	0.066328	0.069255	-0.50728	10.392	-26.696	29.608	17.5	810	0.069255	0.06771	0.7574	0.10563	10.392	10.052	46.457	16.758
1268	79	3	53	3.8041	1	0.066328	0.75098	0.17444	46.457	9.3685	6.543	-5.5647	418	0.077144	0.067137	0.75098	0.10474	12.147	10.052	46.457	16.758
1268	80	3	57	7.8041	1	0.066328	0.75576	0.17922	46.845	9.7562	10.155	-1.9525	406	0.075664	0.065848	0.75576	0.10273	12.147	10.052	46.845	16.758
1268	81	3	56	6.8041	1	0.066328	0.76305	0.18651	47.447	10.358	8.5534	-3.5544	334	0.073404	0.063882	0.76305	0.099662	12.147	10.052	47.447	16.758
1268	82	3	54	4.8041	1	0.066328	0.76908	0.19254	47.954	10.865	6.0465	-6.0613	698	0.071538	0.062257	0.76908	0.097127	12.147	10.052	47.954	16.758
1268	83	3	57	7.8041	1	0.066328	0.77327	0.19673	48.312	11.223	8.6881	-3.4196	522	0.070238	0.061127	0.77327	0.095363	12.147	10.052	48.312	16.758
1268	84	3	59	9.8041	1	0.066328	0.7792	0.20266	48.827	11.738	10.173	-1.9345	466	0.068401	0.059528	0.7792	0.092868	12.147	10.052	48.827	16.758
1268	85	3	57	7.8041	1	0.066328	0.78601	0.20947	49.43	12.341	7.5703	-4.5374	369	0.066293	0.057693	0.78601	0.090007	12.147	10.052	49.43	16.758
1268	86	3	58	8.8041	1	0.066328	0.79097	0.21443	49.878	12.79	8.1217	-3.9861	497	0.064756	0.056355	0.79097	0.08792	12.147	10.052	49.878	16.758
1268	87	3	57	7.8041	1	0.066328	0.7962	0.21966	50.36	13.271	6.6403	-5.4674	551	0.063136	0.054945	0.7962	0.08572	12.147	10.052	50.36	16.758
1268	88	3	57	7.8041	1	0.066328	0.8004	0.22386	50.753	13.665	6.2468	-5.861	316	0.061834	0.053812	0.8004	0.083952	12.147	10.052	50.753	16.758
1268	89	3	58	8.8041	1	0.066328	0.8043	0.22776	51.123	14.035	6.8766	-5.2312	320	0.060627	0.052763	0.8043	0.082314	12.147	10.052	51.123	16.758
1268	90	3	60	10.804	1	0.066328	0.80852	0.23198	51.531	14.442	8.4691	-3.6387	377	0.05932	0.051625	0.80852	0.08054	12.147	10.052	51.531	16.758
1268	91	3	55	5.8041	1	0.066328	0.81362	0.23708	52.033	14.944	2.9671	-9.1406	334	0.05774	0.05025	0.81362	0.078394	12.147	10.052	52.033	16.758
1268	92	3	58	8.8041	1	0.066328	0.81538	0.23884	52.209	15.12	5.7913	-6.3165	300	0.057194	0.049774	0.81538	0.077653	12.147	10.052	52.209	16.758
1268	93	3	63	13.804	1	0.066328	0.81878	0.24224	52.552	15.463	10.448	-1.6597	451	0.05614	0.048857	0.81878	0.076222	12.147	10.052	52.552	16.758
1268	94	3	67	17.804	1	0.066328	0.8248	0.24826	53.171	16.083	13.829	1.7211	815	0.054277	0.047236	0.8248	0.073692	12.147	10.052	53.171	16.758
1268	95	3	66	16.804	1	0.066328	0.83251	0.25597	53.991	16.902	12.009	-0.098459	366	0.051886	0.045155	0.83251	0.070446	12.147	10.052	53.991	16.758
1268	96	3	63	13.804	1	0.066328	0.83899	0.26245	54.702	17.614	8.2976	-3.8102	466	0.049879	0.043408	0.83899	0.067721	12.147	10.052	54.702	16.758
1268	97	3	64	14.804	1	0.066328	0.84335	0.26681	55.194	18.106	8.8058	-3.3019	355	0.048529	0.042233	0.84335	0.065888	12.147	10.052	55.194	16.758
1268	98	3	69	19.804	1	0.066328	0.84787	0.27133	55.716	18.628	13.284	1.1762	495	0.047129	0.041015	0.84787	0.063987	12.147	10.052	55.716	16.758
1268	99	3	72	22.804	1	0.066328	0.85448	0.27794	56.503	19.415	15.497	3.3889	297	0.04508	0.039232	0.85448	0.061205	12.147	10.052	56.503	16.758
1268	100	3	72	22.804	1	0.066328	0.86189	0.28535	57.422	20.333	14.578	2.4705	443	0.042784	0.037234	0.86189	0.058088	12.147	10.052	57.422	16.758
1268	101	3	72	22.804	1	0.066328	0.86858	0.29204	58.286	21.197	13.714	1.6065	307	0.040714	0.035432	0.86858	0.055278	12.147	10.052	58.286	16.758
1268	102	3	75	25.804	1	0.066328	0.87461	0.29807	59.098	22.01	15.902	3.7938	944	0.038845	0.033806	0.87461	0.052741	12.147	10.052	59.098	16.758
1268	103	3	77	27.804	1	0.066328	0.8813	0.30476	60.041	22.952	16.959	4.8514	297	0.036771	0.032001	0.8813	0.049924	12.147	10.052	60.041	16.758
1268	104	3	79	29.804	1	0.066328	0.8881	0.31156	61.046	23.957	17.954	5.8463	296	0.034665	0.030168	0.8881	0.047065	12.147	10.052	61.046	16.758
1268	105	3	83	33.804	1	0.066328	0.89493	0.31839	62.11	25.021	20.89	8.7822	425	0.032551	0.028328	0.89493	0.044195	12.147	10.052	62.11	16.758
1268	106	3	86	36.804	1	0.066328	0.9024	0.32586	63.348	26.26	22.652	10.544	886	0.030235	0.026313	0.9024	0.04105	12.147	10.052	63.348	16.758
1268	107	3	83	33.804	1	0.066328	0.90997	0.33343	64.691	27.602	18.309	6.2017	494	0.027891	0.024273	0.90997	0.037868	12.147	10.052	64.691	16.758
1268	108	3	82	32.804	1	0.066328	0.91569	0.33915	65.776	28.687	16.224	4.1166	263	0.026118	0.022729	0.91569	0.03546	12.147	10.052	65.776	16.758
1268	109	3	78	28.804	1	0.066328	0.92049	0.34395	66.737	29.649	11.263	-0.84491	280	0.024632	0.021437	0.92049	0.033443	12.147	10.052	66.737	16.758
1268	110	3	78	28.804	1	0.066328	0.92367	0.34713	67.405	30.316	10.595	-1.5124	281	0.023647	0.020579	0.92367	0.032106	12.147	10.052	67.405	16.758
1268	111	3	83	33.804	1	0.066328	0.92655	0.35001	68.033	30.944	14.967	2.8597	885	0.022753	0.019801	0.92655	0.030892	12.147	10.052	68.033	16.758
1268	112	3	82	32.804	1	0.066328	0.93046	0.35392	68.92	31.831	13.08	0.97263	318	0.021543	0.018749	0.93046	0.02925	12.147	10.052	68.92	16.758
1268	113	3	79	29.804	1	0.066328	0.93371	0.35717	69.695	32.606	9.3052	-2.8026	736	0.020535	0.017871	0.93371	0.027881	12.147	10.052	69.695	16.758
1268	114	3	79	29.804	1	0.066328	0.93594	0.3594	70.246	33.158	8.7537	-3.354	390	0.019845	0.017271	0.93594	0.026944	12.147	10.052	70.246	16.758
1268	115	3	80	30.804	1	0.066328	0.93797	0.36143	70.765	33.677	9.2349	-2.8728	1376	0.019215	0.016723	0.93797	0.026089	12.147	10.052	70.765	16.758
1268	116	3	79	29.804	1	0.066328	0.94005	0.36351	71.312	34.224	7.6876	-4.4201	394	0.018571	0.016162	0.94005	0.025214	12.147	10.052	71.312	16.758
1268	117	3	78	28.804	1	0.066328	0.94173	0.36519	71.768	34.679	6.232	-5.8757	274	0.018051	0.015709	0.94173	0.024508	12.147	10.052	71.768	16.758
1268	118	3	77	27.804	1	0.066328	0.94306	0.36652	72.137	35.049	4.8627	-7.2451	252	0.017639	0.015351	0.94306	0.023948	12.147	10.052	72.137	16.758
1268	119	3	74	24.804	1	0.066328	0.94408	0.36754	72.426	35.337	1.5745	-10.533	598	0.017323	0.015076	0.94408	0.02352	12.147	10.052	72.426	16.758
1268	120	3	74	24.804	1	0.066328	0.94441	0.36787	72.519	35.43	1.4812	-10.627	452	0.017223	0.014988	0.94441	0.023383	12.147	10.052	72.519	16.758
