SubNo  trial   choice  reward  reward_cent exploit exp_par prob    prob_cent   action_value    action_value_cent   PE  PE_cent rt prob1 prob2 prob3 prob4 av1 av2 av3 av4
415	1	4	82	9.2162	0	0.021484	0.25	-0.0050843	0	-16.821	82	26.018	764	0.25	0.25	0.25	0.25	0	0	0	0
415	2	2	93	20.216	0	0.021484	0.24683	-0.0082578	0	-16.821	93	37.018	418	0.24683	0.24683	0.24683	0.25952	0	0	0	2.3342
415	3	3	61	-11.784	0	0.021484	0.24331	-0.011773	0	-16.821	61	5.0183	577	0.24331	0.25755	0.24331	0.25582	0	2.6474	0	2.3342
415	4	1	86	13.216	0	0.021484	0.24108	-0.014002	0	-16.821	86	30.018	998	0.24108	0.25519	0.25025	0.25348	0	2.6474	1.7364	2.3342
415	5	NaN	NaN	0	0	0.021484	0	0	0	0	0	0	0	0	0	0	0	0	0	0	0
415	6	2	94	21.216	1	0.021484	0.25191	-0.0031725	2.6474	-14.173	91.353	35.371	640	0.25084	0.25191	0.24703	0.25022	2.4481	2.6474	1.7364	2.3342
415	7	4	78	5.2162	0	0.021484	0.24665	-0.0084318	2.3342	-14.486	75.666	19.684	800	0.24726	0.26259	0.24351	0.24665	2.4481	5.2478	1.7364	2.3342
415	8	2	86	13.216	1	0.021484	0.25955	0.0044692	5.2478	-11.573	80.752	24.771	1284	0.2444	0.25955	0.24069	0.25535	2.4481	5.2478	1.7364	4.4881
415	9	4	73	0.21622	0	0.021484	0.25204	-0.0030445	4.4881	-12.332	68.512	12.53	1040	0.24123	0.26916	0.23757	0.25204	2.4481	7.5465	1.7364	4.4881
415	10	1	71	-1.7838	0	0.021484	0.23866	-0.016427	2.4481	-14.373	68.552	12.57	713	0.23866	0.26629	0.23504	0.26002	2.4481	7.5465	1.7364	6.4384
415	11	2	86	13.216	1	0.021484	0.26359	0.0085072	7.5465	-9.2741	78.453	22.472	885	0.24636	0.26359	0.23266	0.25739	4.3995	7.5465	1.7364	6.4384
415	12	3	54	-18.784	0	0.021484	0.22968	-0.025401	1.7364	-15.084	52.264	-3.7181	482	0.24321	0.27301	0.22968	0.2541	4.3995	9.7798	1.7364	6.4384
415	13	4	69	-3.7838	0	0.021484	0.25222	-0.0028675	6.4384	-10.382	62.562	6.5799	524	0.24141	0.27099	0.23539	0.25222	4.3995	9.7798	3.2242	6.4384
415	14	4	67	-5.7838	0	0.021484	0.2595	0.0044169	8.2193	-8.6013	58.781	2.799	464	0.23906	0.26835	0.23309	0.2595	4.3995	9.7798	3.2242	8.2193
415	15	2	80	7.2162	0	0.021484	0.26582	0.01074	9.7798	-7.0408	70.22	14.239	529	0.23681	0.26582	0.2309	0.26647	4.3995	9.7798	3.2242	9.8926
415	16	1	77	4.2162	0	0.021484	0.23408	-0.021009	4.3995	-12.421	72.6	16.619	542	0.23408	0.27429	0.22824	0.2634	4.3995	11.779	3.2242	9.8926
415	17	3	54	-18.784	0	0.021484	0.22584	-0.029245	3.2242	-13.596	50.776	-5.2059	425	0.24213	0.2714	0.22584	0.26063	6.4662	11.779	3.2242	9.8926
415	18	2	83	10.216	1	0.021484	0.26949	0.014401	11.779	-5.0419	71.221	15.24	506	0.24042	0.26949	0.23131	0.25878	6.4662	11.779	4.6696	9.8926
415	19	2	80	7.2162	1	0.021484	0.27815	0.023061	13.806	-3.0145	66.194	10.212	803	0.23757	0.27815	0.22857	0.25572	6.4662	13.806	4.6696	9.8926
415	20	3	46	-26.784	0	0.021484	0.22598	-0.029109	4.6696	-12.151	41.33	-14.651	752	0.23487	0.28635	0.22598	0.25281	6.4662	15.69	4.6696	9.8926
415	21	4	53	-19.784	0	0.021484	0.25136	-0.0037282	9.8926	-6.928	43.107	-12.874	930	0.23352	0.2847	0.23043	0.25136	6.4662	15.69	5.8461	9.8926
415	22	4	51	-21.784	0	0.021484	0.25635	0.0012653	11.12	-5.7009	39.88	-16.101	691	0.23196	0.2828	0.22889	0.25635	6.4662	15.69	5.8461	11.12
415	23	1	66	-6.7838	0	0.021484	0.2305	-0.024583	6.4662	-10.354	59.534	3.5522	601	0.2305	0.28102	0.22745	0.26103	6.4662	15.69	5.8461	12.255
415	24	2	82	9.2162	1	0.021484	0.27864	0.023556	15.69	-1.1302	66.31	10.328	704	0.23702	0.27864	0.22552	0.25881	8.1609	15.69	5.8461	12.255
415	25	3	58	-14.784	0	0.021484	0.22295	-0.032132	5.8461	-10.975	52.154	-3.8278	1104	0.23432	0.28686	0.22295	0.25586	8.1609	17.578	5.8461	12.255
415	26	2	87	14.216	1	0.021484	0.28481	0.029722	17.578	0.75736	69.422	13.44	1106	0.23264	0.28481	0.22853	0.25403	8.1609	17.578	7.3307	12.255
415	27	4	60	-12.784	0	0.021484	0.25093	-0.0041555	12.255	-4.5657	47.745	-8.2366	722	0.2298	0.29353	0.22574	0.25093	8.1609	19.554	7.3307	12.255
415	28	1	74	1.2162	0	0.021484	0.2281	-0.02698	8.1609	-8.6597	65.839	9.8575	639	0.2281	0.29137	0.22407	0.25646	8.1609	19.554	7.3307	13.614
415	29	2	78	5.2162	1	0.021484	0.28866	0.033577	19.554	2.7335	58.446	2.4642	552	0.23527	0.28866	0.22199	0.25408	10.035	19.554	7.3307	13.614
415	30	3	44	-28.784	0	0.021484	0.21968	-0.0354	7.3307	-9.4899	36.669	-19.312	655	0.23283	0.29606	0.21968	0.25143	10.035	21.218	7.3307	13.614
415	31	3	42	-30.784	0	0.021484	0.22355	-0.031532	8.3746	-8.4461	33.625	-22.356	533	0.23167	0.29459	0.22355	0.25019	10.035	21.218	8.3746	13.614
415	32	4	66	-6.7838	0	0.021484	0.24903	-0.0060529	13.614	-3.2066	52.386	-3.5957	702	0.2306	0.29323	0.22714	0.24903	10.035	21.218	9.3317	13.614
415	33	2	81	8.2162	1	0.021484	0.29087	0.035783	21.218	4.3973	59.782	3.8004	475	0.22875	0.29087	0.22532	0.25507	10.035	21.218	9.3317	15.105
415	34	1	75	2.2162	0	0.021484	0.22629	-0.028789	10.035	-6.7856	64.965	8.9833	1036	0.22629	0.29847	0.2229	0.25234	10.035	22.92	9.3317	15.105
415	35	2	85	12.216	1	0.021484	0.29575	0.040669	22.92	6.099	62.08	6.0987	387	0.23333	0.29575	0.22088	0.25004	11.884	22.92	9.3317	15.105
415	36	3	54	-18.784	0	0.021484	0.21838	-0.036708	9.3317	-7.4889	44.668	-11.313	557	0.23069	0.30372	0.21838	0.24722	11.884	24.687	9.3317	15.105
415	37	4	60	-12.784	0	0.021484	0.24573	-0.0093553	15.105	-1.7153	44.895	-11.087	512	0.2293	0.3019	0.22307	0.24573	11.884	24.687	10.603	15.105
415	38	1	82	9.2162	0	0.021484	0.22774	-0.027342	11.884	-4.9363	70.116	14.134	398	0.22774	0.29985	0.22156	0.25085	11.884	24.687	10.603	16.383
415	39	2	84	11.216	1	0.021484	0.29688	0.041799	24.687	7.8662	59.313	3.3315	660	0.23537	0.29688	0.21937	0.24838	13.88	24.687	10.603	16.383
415	40	2	79	6.2162	1	0.021484	0.30451	0.049426	26.375	9.5546	52.625	-3.3569	620	0.23282	0.30451	0.21699	0.24568	13.88	26.375	10.603	16.383
415	41	3	63	-9.7838	0	0.021484	0.21485	-0.040234	10.603	-6.2173	52.397	-3.585	416	0.23052	0.31137	0.21485	0.24326	13.88	27.873	10.603	16.383
415	42	4	73	0.21622	0	0.021484	0.24157	-0.013516	16.383	-0.43737	56.617	0.63508	864	0.22892	0.30921	0.22031	0.24157	13.88	27.873	12.095	16.383
415	43	1	77	4.2162	0	0.021484	0.22699	-0.028095	13.88	-2.9403	63.12	7.138	385	0.22699	0.3066	0.21845	0.24797	13.88	27.873	12.095	17.995
415	44	2	88	15.216	1	0.021484	0.30388	0.048797	27.873	11.053	60.127	4.145	550	0.23383	0.30388	0.21651	0.24577	15.677	27.873	12.095	17.995
415	45	2	91	18.216	1	0.021484	0.31172	0.056631	29.585	12.764	61.415	5.4335	713	0.2312	0.31172	0.21408	0.24301	15.677	29.585	12.095	17.995
415	46	4	79	6.2162	0	0.021484	0.24014	-0.014943	17.995	1.1743	61.005	5.0234	573	0.22848	0.31983	0.21155	0.24014	15.677	31.333	12.095	17.995
415	47	3	65	-7.7838	0	0.021484	0.20964	-0.045446	12.095	-4.7258	52.905	-3.0765	1522	0.22641	0.31694	0.20964	0.24702	15.677	31.333	12.095	19.731
415	48	2	88	15.216	1	0.021484	0.31477	0.059683	31.333	14.513	56.667	0.68521	1093	0.22486	0.31477	0.21505	0.24532	15.677	31.333	13.601	19.731
415	49	2	87	14.216	1	0.021484	0.32229	0.067206	32.946	16.126	54.054	-1.9279	861	0.22239	0.32229	0.21269	0.24263	15.677	32.946	13.601	19.731
415	50	4	71	-1.7838	0	0.021484	0.24003	-0.015053	19.731	2.9109	51.269	-4.7132	1489	0.22001	0.32955	0.21041	0.24003	15.677	34.485	13.601	19.731
415	51	4	70	-2.7838	0	0.021484	0.2458	-0.0092873	21.191	4.3703	48.809	-7.1726	402	0.21834	0.32705	0.20881	0.2458	15.677	34.485	13.601	21.191
415	52	1	72	-0.78378	0	0.021484	0.21672	-0.03836	15.677	-1.1435	56.323	0.34126	716	0.21672	0.32463	0.20727	0.25137	15.677	34.485	13.601	22.58
415	53	2	84	11.216	1	0.021484	0.32219	0.067103	34.485	17.664	49.515	-6.4666	669	0.22263	0.32219	0.20571	0.24948	17.28	34.485	13.601	22.58
415	54	3	74	1.2162	0	0.021484	0.20369	-0.051395	13.601	-3.2198	60.399	4.4175	1305	0.22044	0.32884	0.20369	0.24703	17.28	35.894	13.601	22.58
415	55	4	63	-9.7838	0	0.021484	0.24515	-0.0099326	22.58	5.7597	40.42	-15.562	993	0.21877	0.32633	0.20975	0.24515	17.28	35.894	15.32	22.58
415	56	4	64	-8.7838	0	0.021484	0.24975	-0.0053294	23.731	6.9103	40.269	-15.713	711	0.21743	0.32434	0.20847	0.24975	17.28	35.894	15.32	23.731
415	57	2	81	8.2162	1	0.021484	0.32234	0.067253	35.894	19.074	45.106	-10.876	701	0.21609	0.32234	0.20718	0.2544	17.28	35.894	15.32	24.877
415	58	3	73	0.21622	0	0.021484	0.20533	-0.049759	15.32	-1.5005	57.68	1.6982	792	0.21416	0.32839	0.20533	0.25212	17.28	37.178	15.32	24.877
415	59	4	67	-5.7838	0	0.021484	0.25028	-0.0048045	24.877	8.0566	42.123	-13.859	849	0.21259	0.32599	0.21114	0.25028	17.28	37.178	16.962	24.877
415	60	1	69	-3.7838	0	0.021484	0.21121	-0.043874	17.28	0.45975	51.72	-4.262	496	0.21121	0.32387	0.20977	0.25514	17.28	37.178	16.962	26.076
415	61	2	84	11.216	1	0.021484	0.32169	0.066606	37.178	20.358	46.822	-9.1601	1198	0.21653	0.32169	0.20836	0.25342	18.753	37.178	16.962	26.076
415	62	3	79	6.2162	0	0.021484	0.20643	-0.048656	16.962	0.14147	62.038	6.0562	1446	0.21452	0.32797	0.20643	0.25108	18.753	38.511	16.962	26.076
415	63	4	58	-14.784	0	0.021484	0.24909	-0.0059944	26.076	9.2557	31.924	-24.058	806	0.21282	0.32537	0.21271	0.24909	18.753	38.511	18.728	26.076
415	64	3	83	10.216	0	0.021484	0.21167	-0.043411	18.728	1.9075	64.272	8.2903	540	0.21178	0.32378	0.21167	0.25276	18.753	38.511	18.728	26.985
415	65	2	84	11.216	1	0.021484	0.32106	0.065974	38.511	21.691	45.489	-10.493	1515	0.21	0.32106	0.21831	0.25063	18.753	38.511	20.558	26.985
415	66	2	81	8.2162	1	0.021484	0.32715	0.072068	39.806	22.986	41.194	-14.788	961	0.20812	0.32715	0.21635	0.24838	18.753	39.806	20.558	26.985
415	67	2	85	12.216	1	0.021484	0.33272	0.077637	40.979	24.158	44.021	-11.96	1282	0.2064	0.33272	0.21456	0.24633	18.753	40.979	20.558	26.985
415	68	1	59	-13.784	0	0.021484	0.20454	-0.050546	18.753	1.932	40.247	-15.734	1210	0.20454	0.33873	0.21263	0.24411	18.753	42.232	20.558	26.985
415	69	2	82	9.2162	1	0.021484	0.33701	0.081924	42.232	25.411	39.768	-16.214	984	0.20857	0.33701	0.21155	0.24287	19.898	42.232	20.558	26.985
415	70	3	87	14.216	0	0.021484	0.20981	-0.045278	20.558	3.737	66.442	10.461	866	0.20686	0.34246	0.20981	0.24087	19.898	43.364	20.558	26.985
415	71	4	49	-23.784	0	0.021484	0.2388	-0.016288	26.985	10.164	22.015	-33.967	851	0.20507	0.33951	0.21662	0.2388	19.898	43.364	22.449	26.985
415	72	4	50	-22.784	0	0.021484	0.24125	-0.013832	27.612	10.791	22.388	-33.593	1313	0.20441	0.33841	0.21592	0.24125	19.898	43.364	22.449	27.612
415	73	2	80	7.2162	1	0.021484	0.33729	0.082208	43.364	26.543	36.636	-19.346	466	0.20373	0.33729	0.21521	0.24377	19.898	43.364	22.449	28.249
415	74	3	77	4.2162	0	0.021484	0.21358	-0.041508	22.449	5.6284	54.551	-1.4307	669	0.20219	0.34232	0.21358	0.24192	19.898	44.407	22.449	28.249
415	75	1	68	-4.7838	0	0.021484	0.20073	-0.054352	21.268	4.447	48.102	-7.88	965	0.20073	0.33986	0.21923	0.24018	21.268	44.407	24.002	28.249
415	1	2	63	-27.595	0	0.076094	0.25	-0.41854	0	-46.293	63	18.686	1354	0.25	0.25	0.25	0.25	0	0	0	0
415	2	3	36	-54.595	0	0.076094	0.2379	-0.43065	0	-46.293	36	-8.3137	736	0.2379	0.28631	0.2379	0.2379	0	2.4345	0	0
415	3	4	89	-1.5946	0	0.076094	0.23174	-0.4368	0	-46.293	89	44.686	598	0.23174	0.2789	0.25762	0.23174	0	2.4345	1.3911	0
415	4	4	91	0.40541	1	0.076094	0.28155	-0.387	3.4392	-42.854	87.561	43.247	1037	0.21672	0.26082	0.24092	0.28155	0	2.4345	1.3911	3.4392
415	5	4	87	-3.5946	1	0.076094	0.33641	-0.33213	6.8228	-39.47	80.177	35.863	664	0.20017	0.24091	0.22252	0.33641	0	2.4345	1.3911	6.8228
415	6	2	70	-20.595	0	0.076094	0.22113	-0.44741	2.4345	-43.859	67.565	23.252	1083	0.18373	0.22113	0.20425	0.39089	0	2.4345	1.3911	9.9211
415	7	3	34	-56.595	0	0.076094	0.19478	-0.47376	1.3911	-44.902	32.609	-11.705	574	0.17522	0.25723	0.19478	0.37277	0	5.0454	1.3911	9.9211
415	8	4	78	-12.595	1	0.076094	0.36561	-0.30294	9.9211	-36.372	68.079	23.765	488	0.17185	0.25228	0.21026	0.36561	0	5.0454	2.6513	9.9211
415	9	1	105	14.405	0	0.076094	0.15897	-0.50957	0	-46.293	105	60.686	593	0.15897	0.23337	0.1945	0.41316	0	5.0454	2.6513	12.552
415	10	4	73	-17.595	1	0.076094	0.39069	-0.27785	12.552	-33.741	60.448	16.134	1351	0.2047	0.22068	0.18393	0.39069	4.0575	5.0454	2.6513	12.552
415	11	2	70	-20.595	0	0.076094	0.20509	-0.46345	5.0454	-41.248	64.955	20.641	467	0.19024	0.20509	0.17094	0.43373	4.0575	5.0454	2.6513	14.888
415	12	1	108	17.405	0	0.076094	0.18237	-0.48617	4.0575	-42.236	103.94	59.629	1449	0.18237	0.23799	0.16386	0.41578	4.0575	7.5555	2.6513	14.888
415	13	1	107	16.405	0	0.076094	0.23241	-0.43613	8.0742	-38.219	98.926	54.612	422	0.23241	0.22342	0.15383	0.39033	8.0742	7.5555	2.6513	14.888
415	14	1	108	17.405	0	0.076094	0.28826	-0.38028	11.897	-34.396	96.103	51.789	811	0.28826	0.20716	0.14264	0.36193	11.897	7.5555	2.6513	14.888
415	15	1	106	15.405	1	0.076094	0.3495	-0.31904	15.611	-30.682	90.389	46.076	602	0.3495	0.18934	0.13037	0.33079	15.611	7.5555	2.6513	14.888
415	16	4	77	-13.595	0	0.076094	0.29898	-0.36956	14.888	-31.405	62.112	17.799	480	0.41206	0.17113	0.11783	0.29898	19.104	7.5555	2.6513	14.888
415	17	2	68	-22.595	0	0.076094	0.16146	-0.50708	7.5555	-38.738	60.445	16.131	391	0.38877	0.16146	0.11117	0.3386	19.104	7.5555	2.6513	17.288
415	18	1	105	14.405	1	0.076094	0.37693	-0.29161	19.104	-27.19	85.896	41.583	759	0.37693	0.18699	0.10779	0.32829	19.104	9.8912	2.6513	17.288
415	19	1	101	10.405	1	0.076094	0.43782	-0.23072	22.423	-23.87	78.577	34.263	682	0.43782	0.16872	0.097252	0.29621	22.423	9.8912	2.6513	17.288
415	20	1	94	3.4054	1	0.076094	0.49526	-0.17328	25.459	-20.834	68.541	24.227	1013	0.49526	0.15148	0.087316	0.26595	25.459	9.8912	2.6513	17.288
415	21	1	93	2.4054	1	0.076094	0.54552	-0.12302	28.108	-18.185	64.892	20.578	850	0.54552	0.1364	0.078621	0.23946	28.108	9.8912	2.6513	17.288
415	22	1	96	5.4054	1	0.076094	0.59228	-0.076263	30.616	-15.678	65.384	21.071	739	0.59228	0.12236	0.070532	0.21483	30.616	9.8912	2.6513	17.288
415	23	2	60	-30.595	0	0.076094	0.10871	-0.55983	9.8912	-36.402	50.109	5.7951	720	0.63776	0.10871	0.062664	0.19086	33.142	9.8912	2.6513	17.288
415	24	4	67	-23.595	0	0.076094	0.18762	-0.48092	17.288	-29.005	49.712	5.3983	1173	0.62694	0.12383	0.061601	0.18762	33.142	11.828	2.6513	17.288
415	25	1	95	4.4054	1	0.076094	0.60896	-0.059585	33.142	-13.151	61.858	17.544	452	0.60896	0.12028	0.059834	0.21093	33.142	11.828	2.6513	19.209
415	26	3	45	-45.595	0	0.076094	0.053353	-0.61519	2.6513	-43.642	42.349	-1.9649	1946	0.65131	0.10725	0.053353	0.18808	35.533	11.828	2.6513	19.209
415	27	1	91	0.40541	1	0.076094	0.64674	-0.021804	35.533	-10.761	55.467	11.154	829	0.64674	0.1065	0.060003	0.18676	35.533	11.828	4.2877	19.209
415	28	1	92	1.4054	1	0.076094	0.68305	0.01451	37.676	-8.6171	54.324	10.01	772	0.68305	0.095552	0.053835	0.16756	37.676	11.828	4.2877	19.209
415	29	1	92	1.4054	1	0.076094	0.71658	0.048041	39.775	-6.5178	52.225	7.911	450	0.71658	0.085443	0.04814	0.14983	39.775	11.828	4.2877	19.209
415	30	1	93	2.4054	1	0.076094	0.74671	0.078168	41.793	-4.4997	51.207	6.8929	456	0.74671	0.076361	0.043023	0.13391	41.793	11.828	4.2877	19.209
415	31	4	70	-20.595	0	0.076094	0.11942	-0.54912	19.209	-27.084	50.791	6.4773	1324	0.77412	0.068098	0.038367	0.11942	43.772	11.828	4.2877	19.209
415	32	2	48	-42.595	0	0.076094	0.066812	-0.60173	11.828	-34.466	36.172	-8.1413	387	0.75951	0.066812	0.037643	0.13604	43.772	11.828	4.2877	21.172
415	33	1	99	8.4054	1	0.076094	0.75386	0.085314	43.772	-2.5209	55.228	10.914	629	0.75386	0.073758	0.037363	0.13502	43.772	13.225	4.2877	21.172
415	34	1	98	7.4054	1	0.076094	0.78274	0.11419	45.906	-0.38677	52.094	7.78	674	0.78274	0.065104	0.032979	0.11918	45.906	13.225	4.2877	21.172
415	35	1	99	8.4054	1	0.076094	0.80766	0.13912	47.919	1.6263	51.081	6.7669	431	0.80766	0.057636	0.029196	0.10551	47.919	13.225	4.2877	21.172
415	36	1	104	13.405	1	0.076094	0.82992	0.16138	49.893	3.6002	54.107	9.793	589	0.82992	0.050965	0.025817	0.093298	49.893	13.225	4.2877	21.172
415	37	1	108	17.405	1	0.076094	0.85122	0.18267	51.984	5.691	56.016	11.702	495	0.85122	0.044584	0.022585	0.081617	51.984	13.225	4.2877	21.172
415	38	1	112	21.405	1	0.076094	0.87089	0.20235	54.149	7.8557	57.851	13.538	487	0.87089	0.038687	0.019598	0.070822	54.149	13.225	4.2877	21.172
415	39	1	113	22.405	1	0.076094	0.88884	0.2203	56.384	10.091	56.616	12.302	691	0.88884	0.033308	0.016873	0.060975	56.384	13.225	4.2877	21.172
415	40	NaN	NaN	0	0	0.076094	0	0	0	0	0	0	0	0	0	0	0	0	0	0	0
415	41	1	110	19.405	1	0.076094	0.90426	0.23572	58.572	12.279	51.428	7.1142	373	0.90426	0.028689	0.014533	0.052519	58.572	13.225	4.2877	21.172
415	42	1	113	22.405	1	0.076094	0.91657	0.24803	60.559	14.266	52.441	8.1268	562	0.91657	0.024999	0.012663	0.045763	60.559	13.225	4.2877	21.172
415	43	1	110	19.405	1	0.076094	0.92763	0.25909	62.586	16.293	47.414	3.1004	558	0.92763	0.021685	0.010985	0.039697	62.586	13.225	4.2877	21.172
415	44	1	105	14.405	1	0.076094	0.93645	0.26791	64.418	18.125	40.582	-3.7318	643	0.93645	0.019042	0.0096461	0.034859	64.418	13.225	4.2877	21.172
415	45	1	105	14.405	1	0.076094	0.94319	0.27465	65.986	19.693	39.014	-5.3	451	0.94319	0.017022	0.0086227	0.031161	65.986	13.225	4.2877	21.172
415	46	1	103	12.405	1	0.076094	0.94904	0.2805	67.494	21.201	35.506	-8.8076	757	0.94904	0.015271	0.0077357	0.027956	67.494	13.225	4.2877	21.172
415	47	1	99	8.4054	1	0.076094	0.95386	0.28532	68.866	22.573	30.134	-14.18	1142	0.95386	0.013827	0.0070042	0.025312	68.866	13.225	4.2877	21.172
415	48	1	99	8.4054	1	0.076094	0.9576	0.28906	70.03	23.737	28.97	-15.344	1068	0.9576	0.012704	0.0064354	0.023257	70.03	13.225	4.2877	21.172
415	49	1	96	5.4054	1	0.076094	0.96093	0.29239	71.15	24.857	24.85	-19.464	1470	0.96093	0.011707	0.0059305	0.021432	71.15	13.225	4.2877	21.172
415	50	1	99	8.4054	1	0.076094	0.96358	0.29504	72.11	25.817	26.89	-17.424	1193	0.96358	0.010912	0.0055278	0.019977	72.11	13.225	4.2877	21.172
415	51	1	97	6.4054	1	0.076094	0.96626	0.29772	73.149	26.856	23.851	-20.463	931	0.96626	0.010111	0.0051217	0.018509	73.149	13.225	4.2877	21.172
415	52	1	100	9.4054	1	0.076094	0.96847	0.29993	74.071	27.778	25.929	-18.385	895	0.96847	0.0094475	0.0047858	0.017295	74.071	13.225	4.2877	21.172
415	53	1	99	8.4054	1	0.076094	0.97072	0.30218	75.073	28.78	23.927	-20.387	1182	0.97072	0.0087743	0.0044447	0.016063	75.073	13.225	4.2877	21.172
415	54	1	97	6.4054	1	0.076094	0.97265	0.30411	75.998	29.704	21.002	-23.311	1091	0.97265	0.0081945	0.004151	0.015001	75.998	13.225	4.2877	21.172
415	55	2	27	-63.595	0	0.076094	0.0077163	-0.66083	13.225	-33.068	13.775	-30.539	616	0.97425	0.0077163	0.0039088	0.014126	76.809	13.225	4.2877	21.172
415	56	1	93	2.4054	1	0.076094	0.97394	0.3054	76.809	30.516	16.191	-28.123	616	0.97394	0.0080327	0.0039076	0.014121	76.809	13.758	4.2877	21.172
415	57	1	94	3.4054	1	0.076094	0.97512	0.30658	77.435	31.142	16.565	-27.749	740	0.97512	0.0076686	0.0037304	0.013481	77.435	13.758	4.2877	21.172
415	58	1	87	-3.5946	1	0.076094	0.97627	0.30773	78.075	31.782	8.925	-35.389	765	0.97627	0.0073126	0.0035573	0.012855	78.075	13.758	4.2877	21.172
415	59	1	86	-4.5946	1	0.076094	0.97688	0.30833	78.42	32.127	7.5801	-36.734	1288	0.97688	0.0071276	0.0034673	0.01253	78.42	13.758	4.2877	21.172
415	60	1	89	-1.5946	1	0.076094	0.97737	0.30883	78.713	32.42	10.287	-34.026	754	0.97737	0.006974	0.0033926	0.01226	78.713	13.758	4.2877	21.172
415	61	1	91	0.40541	1	0.076094	0.97803	0.30949	79.11	32.817	11.89	-32.424	660	0.97803	0.0067708	0.0032937	0.011903	79.11	13.758	4.2877	21.172
415	62	1	92	1.4054	1	0.076094	0.97877	0.31023	79.57	33.277	12.43	-31.883	1563	0.97877	0.0065431	0.0031829	0.011503	79.57	13.758	4.2877	21.172
415	63	1	86	-4.5946	1	0.076094	0.97952	0.31098	80.05	33.757	5.9499	-38.364	864	0.97952	0.0063131	0.003071	0.011098	80.05	13.758	4.2877	21.172
415	64	1	86	-4.5946	1	0.076094	0.97987	0.31132	80.28	33.987	5.72	-38.594	1048	0.97987	0.0062058	0.0030189	0.01091	80.28	13.758	4.2877	21.172
415	65	1	90	-0.59459	1	0.076094	0.98019	0.31165	80.501	34.208	9.4989	-34.815	985	0.98019	0.0061043	0.0029695	0.010731	80.501	13.758	4.2877	21.172
415	66	1	91	0.40541	1	0.076094	0.98073	0.31219	80.868	34.575	10.132	-34.182	738	0.98073	0.0059394	0.0028893	0.010441	80.868	13.758	4.2877	21.172
415	67	1	93	2.4054	1	0.076094	0.98128	0.31274	81.26	34.967	11.74	-32.573	1040	0.98128	0.0057683	0.0028061	0.010141	81.26	13.758	4.2877	21.172
415	68	1	98	7.4054	1	0.076094	0.98191	0.31337	81.713	35.42	16.287	-28.027	795	0.98191	0.0055761	0.0027126	0.0098027	81.713	13.758	4.2877	21.172
415	69	1	99	8.4054	1	0.076094	0.98274	0.3142	82.343	36.05	16.657	-27.656	751	0.98274	0.0053199	0.0025879	0.0093522	82.343	13.758	4.2877	21.172
415	70	1	100	9.4054	1	0.076094	0.98355	0.31501	82.986	36.693	17.014	-27.3	620	0.98355	0.0050698	0.0024662	0.0089126	82.986	13.758	4.2877	21.172
415	71	1	101	10.405	1	0.076094	0.98434	0.3158	83.644	37.351	17.356	-26.958	486	0.98434	0.0048263	0.0023478	0.0084845	83.644	13.758	4.2877	21.172
415	72	1	101	10.405	1	0.076094	0.98511	0.31657	84.315	38.021	16.685	-27.628	629	0.98511	0.0045897	0.0022327	0.0080686	84.315	13.758	4.2877	21.172
415	73	1	103	12.405	1	0.076094	0.98581	0.31727	84.959	38.666	18.041	-26.273	952	0.98581	0.0043731	0.0021273	0.0076878	84.959	13.758	4.2877	21.172
415	74	1	110	19.405	1	0.076094	0.98654	0.31799	85.656	39.363	24.344	-19.97	1380	0.98654	0.0041502	0.0020189	0.0072959	85.656	13.758	4.2877	21.172
415	75	1	110	19.405	1	0.076094	0.98745	0.31891	87.502	41.208	23.403	-20.911	606	0.98745	0.0038671	0.0018812	0.0067982	87.502	13.758	4.2877	21.172
415	1	1	30	-24.611	1	0.071641	0.25	-0.49417	0	-44.908	30	20.224	1562	0.25	0.25	0.25	0.25	0	0	0	0
415	2	2	24	-30.611	0	0.071641	0.2324	-0.51177	0	-44.908	24	14.224	414	0.30279	0.2324	0.2324	0.2324	3.6928	0	0	0
415	3	3	85	30.389	0	0.071641	0.22033	-0.52384	0	-44.908	85	75.224	1288	0.28706	0.27227	0.22033	0.22033	3.6928	2.9542	0	0
415	4	4	41	-13.611	0	0.071641	0.17685	-0.56733	0	-44.908	41	31.224	938	0.2304	0.21853	0.37422	0.17685	3.6928	2.9542	10.463	0
415	5	3	85	30.389	1	0.071641	0.34746	-0.39672	10.463	-34.445	74.537	64.762	328	0.21393	0.2029	0.34746	0.23572	3.6928	2.9542	10.463	5.0468
415	6	3	78	23.389	1	0.071641	0.50677	-0.23741	19.638	-25.27	58.362	48.587	420	0.1617	0.15337	0.50677	0.17817	3.6928	2.9542	19.638	5.0468
415	7	1	31	-23.611	0	0.071641	0.12057	-0.6236	3.6928	-41.215	27.307	17.532	1671	0.12057	0.11436	0.63222	0.13285	3.6928	2.9542	26.822	5.0468
415	8	3	75	20.389	1	0.071641	0.61212	-0.13205	26.822	-18.086	48.178	38.403	673	0.14853	0.11072	0.61212	0.12863	7.0541	2.9542	26.822	5.0468
415	9	2	30	-24.611	0	0.071641	0.083625	-0.66055	2.9542	-41.953	27.046	17.27	813	0.11218	0.083625	0.70705	0.097151	7.0541	2.9542	32.752	5.0468
415	10	3	72	17.389	1	0.071641	0.69147	-0.0527	32.752	-12.155	39.248	29.472	860	0.1097	0.10381	0.69147	0.095011	7.0541	6.2834	32.752	5.0468
415	11	3	73	18.389	1	0.071641	0.76008	0.015907	37.583	-7.3243	35.417	25.641	802	0.08531	0.080727	0.76008	0.073883	7.0541	6.2834	37.583	5.0468
415	12	3	71	16.389	1	0.071641	0.81236	0.06819	41.943	-2.9647	29.057	19.282	1884	0.066719	0.063135	0.81236	0.057783	7.0541	6.2834	41.943	5.0468
415	13	3	69	14.389	1	0.071641	0.84835	0.10417	45.52	0.61199	23.48	13.705	674	0.053925	0.051028	0.84835	0.046702	7.0541	6.2834	45.52	5.0468
415	14	3	71	16.389	1	0.071641	0.87311	0.12894	48.41	3.5023	22.59	12.815	735	0.045119	0.042695	0.87311	0.039076	7.0541	6.2834	48.41	5.0468
415	15	3	73	18.389	1	0.071641	0.89359	0.14942	51.191	6.2829	21.809	12.034	478	0.037837	0.035804	0.89359	0.032769	7.0541	6.2834	51.191	5.0468
415	16	3	75	20.389	1	0.071641	0.91054	0.16637	53.875	8.9675	21.125	11.349	953	0.031809	0.0301	0.91054	0.027548	7.0541	6.2834	53.875	5.0468
415	17	3	73	18.389	1	0.071641	0.9246	0.18043	56.476	11.568	16.524	6.749	1267	0.02681	0.02537	0.9246	0.023219	7.0541	6.2834	56.476	5.0468
415	18	3	79	24.389	1	0.071641	0.93415	0.18998	58.51	13.602	20.49	10.715	1607	0.023414	0.022156	0.93415	0.020278	7.0541	6.2834	58.51	5.0468
415	19	3	79	24.389	1	0.071641	0.94443	0.20026	61.032	16.124	17.968	8.1927	977	0.019759	0.018697	0.94443	0.017112	7.0541	6.2834	61.032	5.0468
415	20	3	74	19.389	1	0.071641	0.95219	0.20801	63.244	18.336	10.756	0.98091	669	0.017002	0.016088	0.95219	0.014724	7.0541	6.2834	63.244	5.0468
415	21	3	75	20.389	1	0.071641	0.95632	0.21215	64.568	19.66	10.432	0.65687	734	0.01553	0.014696	0.95632	0.01345	7.0541	6.2834	64.568	5.0468
415	22	3	75	20.389	1	0.071641	0.96001	0.21584	65.852	20.944	9.1482	-0.62729	1300	0.01422	0.013456	0.96001	0.012315	7.0541	6.2834	65.852	5.0468
415	23	NaN	NaN	0	0	0.071641	0	0	0	0	0	0	0	0	0	0	0	0	0	0	0
415	24	3	65	10.389	1	0.071641	0.96299	0.21882	66.978	22.07	-1.9778	-11.753	490	0.013159	0.012452	0.96299	0.011396	7.0541	6.2834	66.978	5.0468
415	25	3	67	12.389	1	0.071641	0.96237	0.21819	66.734	21.827	0.26561	-9.5099	948	0.013381	0.012663	0.96237	0.011589	7.0541	6.2834	66.734	5.0468
415	26	3	65	10.389	1	0.071641	0.96245	0.21828	66.767	21.859	-1.7671	-11.543	1091	0.013351	0.012634	0.96245	0.011563	7.0541	6.2834	66.767	5.0468
415	27	3	64	9.3889	1	0.071641	0.96188	0.21771	66.55	21.642	-2.5496	-12.325	858	0.013553	0.012825	0.96188	0.011738	7.0541	6.2834	66.55	5.0468
415	28	4	35	-19.611	0	0.071641	0.011994	-0.73218	5.0468	-39.861	29.953	20.178	302	0.013849	0.013105	0.96105	0.011994	7.0541	6.2834	66.236	5.0468
415	29	2	27	-27.611	0	0.071641	0.013058	-0.73112	6.2834	-38.624	20.717	10.941	733	0.013799	0.013058	0.95758	0.015564	7.0541	6.2834	66.236	8.7338
415	30	3	61	6.3889	1	0.071641	0.95508	0.21091	66.236	21.328	-5.2357	-15.011	1060	0.013763	0.015634	0.95508	0.015523	7.0541	8.8335	66.236	8.7338
415	31	3	59	4.3889	1	0.071641	0.95306	0.20888	65.591	20.684	-6.5913	-16.367	2203	0.014383	0.016338	0.95306	0.016222	7.0541	8.8335	65.591	8.7338
415	32	3	61	6.3889	1	0.071641	0.95039	0.20621	64.78	19.872	-3.7799	-13.555	952	0.015201	0.017268	0.95039	0.017145	7.0541	8.8335	64.78	8.7338
415	33	3	59	4.3889	1	0.071641	0.94879	0.20462	64.315	19.407	-5.3146	-15.09	1720	0.01569	0.017823	0.94879	0.017696	7.0541	8.8335	64.315	8.7338
415	34	3	54	-0.61111	1	0.071641	0.94647	0.20229	63.66	18.753	-9.6604	-19.436	566	0.016402	0.018632	0.94647	0.0185	7.0541	8.8335	63.66	8.7338
415	35	3	55	0.38889	1	0.071641	0.94198	0.19781	62.471	17.564	-7.4713	-17.247	900	0.017776	0.020193	0.94198	0.020049	7.0541	8.8335	62.471	8.7338
415	36	3	53	-1.6111	1	0.071641	0.93827	0.1941	61.552	16.644	-8.5516	-18.327	722	0.018912	0.021483	0.93827	0.021331	7.0541	8.8335	61.552	8.7338
415	37	3	56	1.3889	1	0.071641	0.93376	0.18959	60.499	15.591	-4.499	-14.275	750	0.020295	0.023055	0.93376	0.022891	7.0541	8.8335	60.499	8.7338
415	38	3	55	0.38889	1	0.071641	0.93126	0.18709	59.945	15.038	-4.9452	-14.721	943	0.02106	0.023924	0.93126	0.023753	7.0541	8.8335	59.945	8.7338
415	39	3	51	-3.6111	1	0.071641	0.92842	0.18424	59.336	14.429	-8.3365	-18.112	488	0.021932	0.024914	0.92842	0.024736	7.0541	8.8335	59.336	8.7338
415	40	3	51	-3.6111	1	0.071641	0.92338	0.1792	58.31	13.403	-7.3103	-17.086	684	0.023477	0.026669	0.92338	0.026479	7.0541	8.8335	58.31	8.7338
415	41	3	47	-7.6111	1	0.071641	0.91869	0.17451	57.41	12.503	-10.41	-20.186	1327	0.024913	0.0283	0.91869	0.028099	7.0541	8.8335	57.41	8.7338
415	42	3	51	-3.6111	1	0.071641	0.91156	0.16739	56.129	11.221	-5.129	-14.905	872	0.027096	0.03078	0.91156	0.030561	7.0541	8.8335	56.129	8.7338
415	43	1	39	-15.611	0	0.071641	0.028235	-0.71594	7.0541	-37.854	31.946	22.17	1014	0.028235	0.032073	0.90785	0.031845	7.0541	8.8335	55.498	8.7338
415	44	3	53	-1.6111	1	0.071641	0.89958	0.15541	55.498	10.59	-2.4977	-12.273	1348	0.037082	0.031781	0.89958	0.031555	10.986	8.8335	55.498	8.7338
415	45	3	51	-3.6111	1	0.071641	0.89757	0.1534	55.19	10.283	-4.1902	-13.966	495	0.037823	0.032417	0.89757	0.032186	10.986	8.8335	55.19	8.7338
415	46	3	47	-7.6111	1	0.071641	0.89413	0.14995	54.674	9.7668	-7.6744	-17.45	496	0.039096	0.033508	0.89413	0.033269	10.986	8.8335	54.674	8.7338
415	47	NaN	NaN	0	0	0.071641	0	0	0	0	0	0	0	0	0	0	0	0	0	0	0
415	48	3	46	-8.6111	1	0.071641	0.88755	0.14337	53.73	8.8221	-7.7298	-17.505	479	0.041525	0.03559	0.88755	0.035337	10.986	8.8335	53.73	8.7338
415	49	3	46	-8.6111	1	0.071641	0.88056	0.13639	52.778	7.8706	-6.7783	-16.554	512	0.044105	0.037801	0.88056	0.037532	10.986	8.8335	52.778	8.7338
415	50	3	46	-8.6111	1	0.071641	0.87413	0.12996	51.944	7.0362	-5.9439	-15.719	529	0.04648	0.039836	0.87413	0.039553	10.986	8.8335	51.944	8.7338
415	51	3	46	-8.6111	1	0.071641	0.86825	0.12408	51.212	6.3046	-5.2123	-14.988	918	0.048651	0.041697	0.86825	0.041401	10.986	8.8335	51.212	8.7338
415	52	3	41	-13.611	1	0.071641	0.8629	0.11873	50.571	5.663	-9.5707	-19.346	570	0.050626	0.04339	0.8629	0.043081	10.986	8.8335	50.571	8.7338
415	53	3	42	-12.611	1	0.071641	0.85261	0.10844	49.393	4.4849	-7.3926	-17.168	1516	0.054427	0.046648	0.85261	0.046316	10.986	8.8335	49.393	8.7338
415	54	3	44	-10.611	1	0.071641	0.84423	0.10005	48.483	3.5749	-4.4826	-14.258	802	0.057522	0.0493	0.84423	0.04895	10.986	8.8335	48.483	8.7338
415	55	3	47	-7.6111	1	0.071641	0.83896	0.094784	47.931	3.0232	-0.93083	-10.706	1604	0.059468	0.050968	0.83896	0.050606	10.986	8.8335	47.931	8.7338
415	56	3	48	-6.6111	1	0.071641	0.83785	0.093672	47.816	2.9086	0.18375	-9.5918	876	0.059879	0.05132	0.83785	0.050955	10.986	8.8335	47.816	8.7338
415	57	NaN	NaN	0	0	0.071641	0	0	0	0	0	0	0	0	0	0	0	0	0	0	0
415	58	3	51	-3.6111	1	0.071641	0.83807	0.093892	47.839	2.9312	3.1611	-6.6144	1801	0.059798	0.05125	0.83807	0.050886	10.986	8.8335	47.839	8.7338
415	59	3	56	1.3889	1	0.071641	0.84181	0.09764	48.228	3.3203	7.772	-2.0035	1060	0.058414	0.050064	0.84181	0.049708	10.986	8.8335	48.228	8.7338
415	60	3	56	1.3889	1	0.071641	0.85073	0.10655	49.185	4.277	6.8153	-2.9602	563	0.055122	0.047243	0.85073	0.046907	10.986	8.8335	49.185	8.7338
415	61	3	54	-0.61111	1	0.071641	0.8582	0.11403	50.024	5.1159	3.9764	-5.7991	510	0.052363	0.044878	0.8582	0.044559	10.986	8.8335	50.024	8.7338
415	62	3	53	-1.6111	1	0.071641	0.86241	0.11824	50.513	5.6054	2.4869	-7.2886	638	0.050806	0.043544	0.86241	0.043235	10.986	8.8335	50.513	8.7338
415	63	3	54	-0.61111	1	0.071641	0.865	0.12082	50.819	5.9115	3.1808	-6.5947	665	0.049853	0.042727	0.865	0.042424	10.986	8.8335	50.819	8.7338
415	64	3	51	-3.6111	1	0.071641	0.86824	0.12406	51.211	6.303	-0.21072	-9.9862	532	0.048656	0.041701	0.86824	0.041405	10.986	8.8335	51.211	8.7338
415	65	3	56	1.3889	1	0.071641	0.86803	0.12385	51.185	6.2771	4.8152	-4.9603	1087	0.048734	0.041769	0.86803	0.041472	10.986	8.8335	51.185	8.7338
415	66	3	56	1.3889	1	0.071641	0.87281	0.12864	51.778	6.8698	4.2225	-5.553	512	0.046966	0.040253	0.87281	0.039967	10.986	8.8335	51.778	8.7338
415	67	3	50	-4.6111	1	0.071641	0.87689	0.13272	52.297	7.3896	-2.2973	-12.073	535	0.045461	0.038963	0.87689	0.038686	10.986	8.8335	52.297	8.7338
415	68	3	42	-12.611	1	0.071641	0.87469	0.13051	52.014	7.1068	-10.014	-19.79	423	0.046275	0.03966	0.87469	0.039378	10.986	8.8335	52.014	8.7338
415	69	3	38	-16.611	1	0.071641	0.86468	0.12051	50.782	5.8741	-12.782	-22.557	706	0.049969	0.042827	0.86468	0.042522	10.986	8.8335	50.782	8.7338
415	70	3	33	-21.611	1	0.071641	0.85094	0.10677	49.208	4.3007	-16.208	-25.984	364	0.055042	0.047175	0.85094	0.046839	10.986	8.8335	49.208	8.7338
415	71	3	32	-22.611	1	0.071641	0.83189	0.087717	47.213	2.3056	-15.213	-24.989	1097	0.062078	0.053205	0.83189	0.052826	10.986	8.8335	47.213	8.7338
415	72	3	36	-18.611	1	0.071641	0.81229	0.068112	45.341	0.43295	-9.3406	-19.116	470	0.069317	0.05941	0.81229	0.058987	10.986	8.8335	45.341	8.7338
415	73	4	48	-6.6111	0	0.071641	0.063036	-0.68114	8.7338	-36.174	39.266	29.491	648	0.074075	0.063487	0.7994	0.063036	10.986	8.8335	44.191	8.7338
415	74	4	45	-9.6111	0	0.071641	0.086853	-0.65732	13.567	-31.34	31.433	21.657	565	0.072192	0.061873	0.77908	0.086853	10.986	8.8335	44.191	13.567
415	75	2	51	-3.6111	0	0.071641	0.060203	-0.68397	14.024	-30.884	42.167	32.391	578	0.070243	0.060203	0.75805	0.1115	10.986	14.024	44.191	17.436
416	1	4	4	-69.068	0	0.04	0.25	-0.18147	0	-66.86	4	-2.217	554	0.25	0.25	0.25	0.25	0	0	0	0
416	2	3	65	-8.0676	0	0.04	0.24544	-0.18603	0	-66.86	65	58.783	465	0.24544	0.24544	0.24544	0.26369	0	0	0	1.7929
416	3	2	97	23.932	0	0.04	0.1592	-0.27227	0	-66.86	97	90.783	422	0.1592	0.1592	0.51057	0.17103	0	0	29.134	1.7929
416	4	1	75	1.9324	0	0.04	0.091127	-0.34034	0	-66.86	75	68.783	663	0.091127	0.51871	0.29226	0.097902	0	43.477	29.134	1.7929
416	5	2	94	20.932	1	0.04	0.41216	-0.019302	43.477	-23.383	50.523	44.305	290	0.27782	0.41216	0.23222	0.077792	33.617	43.477	29.134	1.7929
416	6	2	95	21.932	1	0.04	0.63432	0.20285	66.123	-0.73748	28.877	22.66	311	0.17283	0.63432	0.14446	0.048393	33.617	66.123	29.134	1.7929
416	7	2	97	23.932	1	0.04	0.74431	0.31285	79.066	12.206	17.934	11.717	802	0.12084	0.74431	0.10101	0.033836	33.617	79.066	29.134	1.7929
416	8	2	95	21.932	1	0.04	0.8006	0.36913	87.104	20.244	7.8955	1.6785	409	0.09424	0.8006	0.078772	0.026388	33.617	87.104	29.134	1.7929
416	9	2	94	20.932	1	0.04	0.82224	0.39078	90.643	23.783	3.3566	-2.8605	398	0.084012	0.82224	0.070223	0.023524	33.617	90.643	29.134	1.7929
416	10	2	93	19.932	1	0.04	0.83087	0.3994	92.148	25.288	0.85209	-5.3649	318	0.079935	0.83087	0.066815	0.022382	33.617	92.148	29.134	1.7929
416	11	1	66	-7.0676	0	0.04	0.078926	-0.35254	33.617	-33.244	32.383	26.166	696	0.078926	0.833	0.065971	0.0221	33.617	92.53	29.134	1.7929
416	12	2	95	21.932	1	0.04	0.78428	0.35282	92.53	25.67	2.4702	-3.7469	609	0.1328	0.78428	0.062113	0.020807	48.132	92.53	29.134	1.7929
416	13	2	93	19.932	1	0.04	0.79168	0.36021	93.637	26.777	-0.63702	-6.8541	914	0.12824	0.79168	0.059982	0.020093	48.132	93.637	29.134	1.7929
416	14	2	96	22.932	1	0.04	0.78979	0.35832	93.351	26.491	2.6485	-3.5685	966	0.12941	0.78979	0.060527	0.020276	48.132	93.351	29.134	1.7929
416	15	2	97	23.932	1	0.04	0.79756	0.3661	94.539	27.678	2.4614	-3.7556	731	0.12462	0.79756	0.058288	0.019526	48.132	94.539	29.134	1.7929
416	16	2	98	24.932	1	0.04	0.8046	0.37313	95.642	28.782	2.3581	-3.8589	485	0.12029	0.8046	0.056263	0.018848	48.132	95.642	29.134	1.7929
416	17	2	99	25.932	1	0.04	0.81116	0.37969	96.699	29.839	2.3012	-3.9159	774	0.11625	0.81116	0.054374	0.018215	48.132	96.699	29.134	1.7929
416	18	2	92	18.932	1	0.04	0.8174	0.38593	97.73	30.87	-5.7303	-11.947	932	0.11241	0.8174	0.052578	0.017613	48.132	97.73	29.134	1.7929
416	19	4	30	-43.068	0	0.04	0.01914	-0.41232	1.7929	-65.067	28.207	21.99	1438	0.12216	0.80156	0.057138	0.01914	48.132	95.162	29.134	1.7929
416	20	2	93	19.932	1	0.04	0.79159	0.36012	95.162	28.302	-2.1618	-8.3789	507	0.12064	0.79159	0.056427	0.031343	48.132	95.162	29.134	14.436
416	21	2	95	21.932	1	0.04	0.78512	0.35366	94.193	27.333	0.80715	-5.4099	832	0.12439	0.78512	0.058178	0.032316	48.132	94.193	29.134	14.436
416	22	2	90	16.932	1	0.04	0.78755	0.35609	94.555	27.694	-4.5546	-10.772	1570	0.12298	0.78755	0.057519	0.03195	48.132	94.555	29.134	14.436
416	23	2	86	12.932	1	0.04	0.77357	0.3421	92.513	25.653	-6.5131	-12.73	595	0.13107	0.77357	0.061305	0.034053	48.132	92.513	29.134	14.436
416	24	3	61	-12.068	0	0.04	0.067019	-0.36445	29.134	-37.726	31.866	25.649	760	0.14329	0.75246	0.067019	0.037227	48.132	89.594	29.134	14.436
416	25	2	77	3.9324	1	0.04	0.71551	0.28405	89.594	22.734	-12.594	-18.811	291	0.13625	0.71551	0.11284	0.035399	48.132	89.594	43.417	14.436
416	26	2	78	4.9324	1	0.04	0.66742	0.23595	83.949	17.089	-5.949	-12.166	914	0.15929	0.66742	0.13191	0.041384	48.132	83.949	43.417	14.436
416	27	1	83	9.9324	0	0.04	0.17082	-0.26064	48.132	-18.729	34.868	28.651	1053	0.17082	0.64333	0.14146	0.04438	48.132	81.283	43.417	14.436
416	28	1	78	4.9324	0	0.04	0.27795	-0.15352	63.76	-3.0999	14.24	8.0226	1518	0.27795	0.56022	0.12319	0.038647	63.76	81.283	43.417	14.436
416	29	3	65	-8.0676	0	0.04	0.11397	-0.31749	43.417	-23.443	21.583	15.366	575	0.33195	0.51832	0.11397	0.035756	70.143	81.283	43.417	14.436
416	30	2	74	0.93243	1	0.04	0.49183	0.060365	81.283	14.422	-7.2825	-13.5	292	0.31499	0.49183	0.15925	0.033929	70.143	81.283	53.091	14.436
416	31	4	22	-51.068	0	0.04	0.036102	-0.39536	14.436	-52.424	7.5641	1.347	554	0.33517	0.45928	0.16945	0.036102	70.143	78.018	53.091	14.436
416	32	1	79	5.9324	0	0.04	0.33342	-0.098044	70.143	3.2826	8.8571	2.6401	996	0.33342	0.45688	0.16857	0.04113	70.143	78.018	53.091	17.826
416	33	3	63	-10.068	0	0.04	0.15942	-0.27205	53.091	-13.769	9.9089	3.6919	1672	0.36959	0.43209	0.15942	0.038898	74.113	78.018	53.091	17.826
416	34	2	75	1.9324	1	0.04	0.4191	-0.012367	78.018	11.158	-3.0183	-9.2354	602	0.35848	0.4191	0.18469	0.037729	74.113	78.018	57.532	17.826
416	35	1	77	3.9324	0	0.04	0.36658	-0.064888	74.113	7.2526	2.8872	-3.3299	547	0.36658	0.40598	0.18886	0.038581	74.113	76.665	57.532	17.826
416	36	1	73	-0.067568	0	0.04	0.37868	-0.052788	75.407	8.5467	-2.4069	-8.6239	361	0.37868	0.39823	0.18525	0.037844	75.407	76.665	57.532	17.826
416	37	2	80	6.9324	1	0.04	0.4047	-0.026764	76.665	9.8052	3.3345	-2.8825	749	0.36858	0.4047	0.18826	0.038459	74.328	76.665	57.532	17.826
416	38	2	75	1.9324	1	0.04	0.41918	-0.012282	78.16	11.3	-3.1601	-9.3771	692	0.35961	0.41918	0.18368	0.037523	74.328	78.16	57.532	17.826
416	39	2	72	-1.0676	1	0.04	0.40546	-0.02601	76.744	9.8834	-4.7437	-10.961	603	0.36811	0.40546	0.18802	0.03841	74.328	76.744	57.532	17.826
416	40	1	73	-0.067568	0	0.04	0.3807	-0.050768	74.328	7.4679	-1.3281	-7.5451	690	0.3807	0.38513	0.19445	0.039723	74.328	74.617	57.532	17.826
416	41	2	71	-2.0676	1	0.04	0.38861	-0.042855	74.617	7.7572	-3.6174	-9.8345	2456	0.3751	0.38861	0.19621	0.040082	73.733	74.617	57.532	17.826
416	42	1	70	-3.0676	1	0.04	0.38448	-0.046983	73.733	6.8726	-3.7328	-9.9498	741	0.38448	0.37332	0.20112	0.041085	73.733	72.996	57.532	17.826
416	43	3	49	-24.068	0	0.04	0.20625	-0.22522	57.532	-9.3278	-8.5325	-14.75	2480	0.36877	0.38285	0.20625	0.042133	72.06	72.996	57.532	17.826
416	44	2	70	-3.0676	1	0.04	0.39438	-0.037082	72.996	6.1358	-2.996	-9.2131	836	0.37989	0.39438	0.18233	0.043403	72.06	72.996	53.708	17.826
416	45	1	66	-7.0676	1	0.04	0.38789	-0.043579	72.06	5.1995	-6.0597	-12.277	776	0.38789	0.38163	0.18617	0.044317	72.06	71.653	53.708	17.826
416	46	4	19	-54.068	0	0.04	0.046161	-0.3853	17.826	-49.034	1.1737	-5.0433	446	0.36243	0.3975	0.19391	0.046161	69.344	71.653	53.708	17.826
416	47	2	68	-5.0676	1	0.04	0.39711	-0.034352	71.653	4.7929	-3.6531	-9.8702	337	0.36207	0.39711	0.19372	0.047096	69.344	71.653	53.708	18.352
416	48	1	67	-6.0676	0	0.04	0.37142	-0.060044	69.344	2.4834	-2.3436	-8.5606	2177	0.37142	0.38154	0.19872	0.048312	69.344	70.016	53.708	18.352
416	49	2	64	-9.0676	1	0.04	0.38746	-0.044001	70.016	3.1555	-6.0157	-12.233	683	0.36167	0.38746	0.20181	0.049062	68.293	70.016	53.708	18.352
416	50	1	73	-0.067568	1	0.04	0.37658	-0.054881	68.293	1.4329	4.7068	-1.5102	1049	0.37658	0.3622	0.21013	0.051086	68.293	67.319	53.708	18.352
416	51	1	74	0.93243	1	0.04	0.39659	-0.034873	70.403	3.5426	3.5971	-2.6199	1349	0.39659	0.35057	0.20339	0.049446	70.403	67.319	53.708	18.352
416	52	NaN	NaN	0	0	0.04	0	0	0	0	0	0	0	0	0	0	0	0	0	0	0
416	53	2	59	-14.068	0	0.04	0.34155	-0.089916	67.319	0.45912	-8.3193	-14.536	2440	0.41212	0.34155	0.19815	0.048174	72.015	67.319	53.708	18.352
416	54	1	72	-1.0676	1	0.04	0.4326	0.0011326	72.015	5.1549	-0.015176	-6.2322	746	0.4326	0.30884	0.208	0.050567	72.015	63.59	53.708	18.352
416	55	1	70	-3.0676	1	0.04	0.43253	0.0010658	72.008	5.1481	-2.0084	-8.2254	618	0.43253	0.30887	0.20802	0.050573	72.008	63.59	53.708	18.352
416	56	4	18	-55.068	0	0.04	0.051358	-0.38011	18.352	-48.508	-0.35238	-6.5694	815	0.42372	0.31367	0.21125	0.051358	71.108	63.59	53.708	18.352
416	57	2	69	-4.0676	0	0.04	0.31377	-0.11769	63.59	-3.2698	5.4096	-0.80748	2017	0.42385	0.31377	0.21132	0.051052	71.108	63.59	53.708	18.194
416	58	1	79	5.9324	1	0.04	0.41073	-0.020738	71.108	4.2479	7.8918	1.6748	791	0.41073	0.33503	0.20478	0.049471	71.108	66.015	53.708	18.194
416	59	2	66	-7.0676	0	0.04	0.31534	-0.11613	66.015	-0.84511	-0.01512	-6.2322	1270	0.44535	0.31534	0.19274	0.046564	74.645	66.015	53.708	18.194
416	60	1	78	4.9324	1	0.04	0.44539	0.013925	74.645	7.7852	3.3545	-2.8625	619	0.44539	0.31528	0.19276	0.046568	74.645	66.008	53.708	18.194
416	61	2	71	-2.0676	0	0.04	0.30681	-0.12465	66.008	-0.85189	4.9917	-1.2254	516	0.46029	0.30681	0.18758	0.045317	76.149	66.008	53.708	18.194
416	62	1	74	0.93243	1	0.04	0.44744	0.015973	76.149	9.2888	-2.149	-8.3661	1617	0.44744	0.32617	0.18234	0.044051	76.149	68.246	53.708	18.194
416	63	2	73	-0.067568	0	0.04	0.33178	-0.099688	68.246	1.3855	4.7543	-1.4627	584	0.43793	0.33178	0.18548	0.044809	75.186	68.246	53.708	18.194
416	64	1	76	2.9324	1	0.04	0.42538	-0.0060897	75.186	8.3256	0.81421	-5.4028	572	0.42538	0.35094	0.18016	0.043524	75.186	70.377	53.708	18.194
416	65	2	71	-2.0676	0	0.04	0.34876	-0.082709	70.377	3.5165	0.62332	-5.5937	2318	0.42895	0.34876	0.17904	0.043254	75.551	70.377	53.708	18.194
416	66	1	77	3.9324	1	0.04	0.42727	-0.0041924	75.551	8.6905	1.4493	-4.7678	1055	0.42727	0.3513	0.17834	0.043085	75.551	70.656	53.708	18.194
416	67	2	74	0.93243	0	0.04	0.34739	-0.084074	70.656	3.7958	3.3439	-2.8731	622	0.43364	0.34739	0.17636	0.042606	76.2	70.656	53.708	18.194
416	68	1	77	3.9324	1	0.04	0.42453	-0.0069344	76.2	9.3401	0.79967	-5.4174	745	0.42453	0.3611	0.17265	0.04171	76.2	72.155	53.708	18.194
416	69	2	68	-5.0676	0	0.04	0.3589	-0.072561	72.155	5.2947	-4.1549	-10.372	617	0.42804	0.3589	0.1716	0.041456	76.559	72.155	53.708	18.194
416	70	1	76	2.9324	1	0.04	0.43936	0.0078916	76.559	9.6985	-0.55876	-6.7758	740	0.43936	0.34195	0.17614	0.042553	76.559	70.293	53.708	18.194
416	71	3	39	-34.068	0	0.04	0.17692	-0.25455	53.708	-13.152	-14.708	-20.925	907	0.43689	0.34345	0.17692	0.04274	76.308	70.293	53.708	18.194
416	72	1	75	1.9324	1	0.04	0.45557	0.024108	76.308	9.4481	-1.3083	-7.5253	429	0.45557	0.35814	0.14172	0.044567	76.308	70.293	47.116	18.194
416	73	2	58	-15.068	0	0.04	0.36196	-0.069501	70.293	3.4323	-12.293	-18.51	718	0.44976	0.36196	0.14323	0.045043	75.722	70.293	47.116	18.194
416	74	1	75	1.9324	1	0.04	0.48445	0.05298	75.722	8.8617	-0.7219	-6.9389	548	0.48445	0.31276	0.15428	0.048517	75.722	64.783	47.116	18.194
416	75	1	77	3.9324	1	0.04	0.48121	0.049748	76.116	9.256	1.6017	-4.6154	832	0.48121	0.31472	0.15524	0.048821	76.116	64.783	47.116	18.194
416	1	3	31	-34.068	0	0.054375	0.25	-0.33961	0	-59.436	31	25.443	603	0.25	0.25	0.25	0.25	0	0	0	0
416	2	2	90	24.932	0	0.054375	0.20163	-0.38799	0	-59.436	90	84.443	433	0.20163	0.20163	0.39512	0.20163	0	0	12.373	0
416	3	1	30	-35.068	0	0.054375	0.090818	-0.4988	0	-59.436	30	24.443	389	0.090818	0.64039	0.17797	0.090818	0	35.921	12.373	0
416	4	2	96	30.932	1	0.054375	0.59113	0.0015153	35.921	-23.515	60.079	54.522	417	0.16076	0.59113	0.16428	0.083832	11.974	35.921	12.373	0
416	5	2	97	31.932	1	0.054375	0.84191	0.25229	59.9	0.464	37.1	31.543	854	0.062157	0.84191	0.063521	0.032414	11.974	59.9	12.373	0
416	6	2	93	27.932	1	0.054375	0.92256	0.33295	74.708	15.271	18.292	12.735	892	0.030447	0.92256	0.031115	0.015878	11.974	74.708	12.373	0
416	7	2	98	32.932	1	0.054375	0.94658	0.35696	82.009	22.572	15.991	10.434	727	0.021004	0.94658	0.021465	0.010953	11.974	82.009	12.373	0
416	8	NaN	NaN	0	0	0.054375	0	0	0	0	0	0	0	0	0	0	0	0	0	0	0
416	9	2	89	23.932	1	0.054375	0.96164	0.37203	88.391	28.955	0.60885	-4.9482	509	0.015081	0.96164	0.015412	0.0078646	11.974	88.391	12.373	0
416	10	4	47	-18.068	0	0.054375	0.0077653	-0.58185	0	-59.436	47	41.443	595	0.014891	0.96213	0.015217	0.0077653	11.974	88.634	12.373	0
416	11	2	93	27.932	1	0.054375	0.94906	0.35945	88.634	29.198	4.3658	-1.1912	484	0.014688	0.94906	0.015011	0.021242	11.974	88.634	12.373	18.759
416	12	2	91	25.932	1	0.054375	0.95345	0.36384	90.377	30.941	0.62333	-4.9337	687	0.013422	0.95345	0.013717	0.019412	11.974	90.377	12.373	18.759
416	13	2	87	21.932	1	0.054375	0.95405	0.36443	90.625	31.189	-3.6255	-9.1825	843	0.01325	0.95405	0.013541	0.019163	11.974	90.625	12.373	18.759
416	14	2	87	21.932	1	0.054375	0.95047	0.36086	89.178	29.742	-2.1784	-7.7355	1151	0.014281	0.95047	0.014595	0.020654	11.974	89.178	12.373	18.759
416	15	2	86	20.932	1	0.054375	0.9482	0.35858	88.309	28.873	-2.309	-7.866	524	0.014937	0.9482	0.015265	0.021602	11.974	88.309	12.373	18.759
416	16	2	83	17.932	1	0.054375	0.94568	0.35607	87.387	27.951	-4.3874	-9.9445	607	0.015663	0.94568	0.016006	0.022652	11.974	87.387	12.373	18.759
416	17	2	86	20.932	1	0.054375	0.94058	0.35096	85.636	26.2	0.36372	-5.1933	279	0.017134	0.94058	0.01751	0.02478	11.974	85.636	12.373	18.759
416	18	2	87	21.932	1	0.054375	0.94101	0.3514	85.781	26.345	1.2185	-4.3385	1147	0.017008	0.94101	0.017381	0.024597	11.974	85.781	12.373	18.759
416	19	2	86	20.932	1	0.054375	0.94247	0.35285	86.268	26.832	-0.2678	-5.8249	691	0.016589	0.94247	0.016953	0.023992	11.974	86.268	12.373	18.759
416	20	2	81	15.932	1	0.054375	0.94215	0.35254	86.161	26.725	-5.1609	-10.718	764	0.01668	0.94215	0.017046	0.024123	11.974	86.161	12.373	18.759
416	21	1	39	-26.068	0	0.054375	0.01853	-0.57108	11.974	-47.462	27.026	21.469	1058	0.01853	0.93573	0.018937	0.026799	11.974	84.101	12.373	18.759
416	22	2	80	14.932	1	0.054375	0.9221	0.33249	84.101	24.665	-4.1011	-9.6581	321	0.032828	0.9221	0.018661	0.026408	22.761	84.101	12.373	18.759
416	23	2	84	18.932	1	0.054375	0.91547	0.32585	82.464	23.028	1.5358	-4.0213	623	0.035625	0.91547	0.020251	0.028659	22.761	82.464	12.373	18.759
416	24	2	83	17.932	1	0.054375	0.91801	0.3284	83.077	23.641	-0.077193	-5.6343	520	0.034553	0.91801	0.019642	0.027796	22.761	83.077	12.373	18.759
416	25	2	81	15.932	1	0.054375	0.91788	0.32827	83.046	23.61	-2.0464	-7.6034	377	0.034606	0.91788	0.019672	0.027839	22.761	83.046	12.373	18.759
416	26	2	79	13.932	1	0.054375	0.91447	0.32486	82.23	22.793	-3.2296	-8.7867	1008	0.036043	0.91447	0.020489	0.028995	22.761	82.23	12.373	18.759
416	27	2	83	17.932	1	0.054375	0.90883	0.31922	80.941	21.504	2.0594	-3.4977	963	0.038422	0.90883	0.021841	0.030908	22.761	80.941	12.373	18.759
416	28	2	82	16.932	1	0.054375	0.91247	0.32285	81.763	22.326	0.23744	-5.3196	562	0.036889	0.91247	0.02097	0.029676	22.761	81.763	12.373	18.759
416	29	2	80	14.932	1	0.054375	0.91288	0.32326	81.857	22.421	-1.8573	-7.4144	782	0.036716	0.91288	0.020871	0.029536	22.761	81.857	12.373	18.759
416	30	2	75	9.9324	1	0.054375	0.90962	0.32	81.116	21.68	-6.116	-11.673	528	0.03809	0.90962	0.021652	0.030641	22.761	81.116	12.373	18.759
416	31	2	76	10.932	1	0.054375	0.89809	0.30848	78.675	19.239	-2.675	-8.232	437	0.042945	0.89809	0.024413	0.034548	22.761	78.675	12.373	18.759
416	32	2	73	7.9324	1	0.054375	0.89266	0.30304	77.607	18.171	-4.6073	-10.164	976	0.045237	0.89266	0.025715	0.036391	22.761	77.607	12.373	18.759
416	33	2	71	5.9324	1	0.054375	0.88269	0.29308	75.768	16.332	-4.7684	-10.325	893	0.049436	0.88269	0.028102	0.039769	22.761	75.768	12.373	18.759
416	34	3	58	-7.0676	0	0.054375	0.030773	-0.55884	12.373	-47.063	45.627	40.07	1057	0.054134	0.87155	0.030773	0.043548	22.761	73.865	12.373	18.759
416	35	1	45	-20.068	0	0.054375	0.051455	-0.53816	22.761	-36.676	22.239	16.682	596	0.051455	0.82842	0.078735	0.041393	22.761	73.865	30.584	18.759
416	36	2	66	0.93243	1	0.054375	0.80279	0.21318	73.865	14.429	-7.8652	-13.422	554	0.080796	0.80279	0.0763	0.040112	31.637	73.865	30.584	18.759
416	37	2	69	3.9324	1	0.054375	0.77437	0.18475	70.726	11.29	-1.726	-7.2831	547	0.092441	0.77437	0.087297	0.045894	31.637	70.726	30.584	18.759
416	38	4	45	-20.068	0	0.054375	0.047239	-0.54237	18.759	-40.677	26.241	20.684	1067	0.09515	0.76776	0.089855	0.047239	31.637	70.037	30.584	18.759
416	39	2	70	4.9324	1	0.054375	0.7409	0.15128	70.037	10.601	-0.037122	-5.5942	730	0.091822	0.7409	0.086712	0.080568	31.637	70.037	30.584	29.232
416	40	2	69	3.9324	1	0.054375	0.74074	0.15113	70.022	10.586	-1.0223	-6.5794	683	0.091877	0.74074	0.086763	0.080616	31.637	70.022	30.584	29.232
416	41	2	65	-0.067568	1	0.054375	0.73646	0.14685	69.614	10.178	-4.6143	-10.171	2387	0.093395	0.73646	0.088197	0.081948	31.637	69.614	30.584	29.232
416	42	2	65	-0.067568	1	0.054375	0.71657	0.12696	67.773	8.3364	-2.7726	-8.3297	1259	0.10044	0.71657	0.094854	0.088133	31.637	67.773	30.584	29.232
416	43	2	65	-0.067568	1	0.054375	0.70419	0.11458	66.666	7.2298	-1.666	-7.2231	2480	0.10483	0.70419	0.098996	0.091982	31.637	66.666	30.584	29.232
416	44	2	64	-1.0676	1	0.054375	0.6966	0.10699	66.001	6.5649	-2.0011	-7.5581	1276	0.10752	0.6966	0.10154	0.094341	31.637	66.001	30.584	29.232
416	45	2	65	-0.067568	1	0.054375	0.68735	0.097735	65.202	5.7662	-0.20238	-5.7594	940	0.1108	0.68735	0.10463	0.09722	31.637	65.202	30.584	29.232
416	46	2	58	-7.0676	1	0.054375	0.6864	0.096791	65.122	5.6854	-7.1216	-12.679	727	0.11113	0.6864	0.10495	0.097513	31.637	65.122	30.584	29.232
416	47	2	55	-10.068	1	0.054375	0.65222	0.062605	62.279	2.843	-7.2792	-12.836	529	0.12325	0.65222	0.11639	0.10814	31.637	62.279	30.584	29.232
416	48	3	58	-7.0676	0	0.054375	0.12865	-0.46096	30.584	-28.852	27.416	21.859	603	0.13623	0.61558	0.12865	0.11954	31.637	59.374	30.584	29.232
416	49	3	58	-7.0676	0	0.054375	0.21116	-0.37845	41.526	-17.91	16.474	10.917	675	0.12333	0.55729	0.21116	0.10822	31.637	59.374	41.526	29.232
416	50	3	61	-4.0676	0	0.054375	0.27679	-0.31282	48.101	-11.335	12.899	7.3416	736	0.11307	0.51092	0.27679	0.099213	31.637	59.374	48.101	29.232
416	51	3	57	-8.0676	0	0.054375	0.33615	-0.25346	53.25	-6.1866	3.7505	-1.8066	829	0.10379	0.46899	0.33615	0.09107	31.637	59.374	53.25	29.232
416	52	4	45	-20.068	0	0.054375	0.088546	-0.50107	29.232	-30.204	15.768	10.211	1446	0.10091	0.45599	0.35455	0.088546	31.637	59.374	54.746	29.232
416	53	1	32	-33.068	0	0.054375	0.097395	-0.49222	31.637	-27.799	0.3631	-5.194	563	0.097395	0.44009	0.34219	0.12033	31.637	59.374	54.746	35.526
416	54	3	47	-18.068	0	0.054375	0.34192	-0.24769	54.746	-4.6897	-7.7464	-13.303	637	0.09809	0.43975	0.34192	0.12024	31.782	59.374	54.746	35.526
416	55	2	47	-18.068	1	0.054375	0.46432	-0.1253	59.374	-0.06228	-12.374	-17.931	1388	0.10357	0.46432	0.30516	0.12695	31.782	59.374	51.655	35.526
416	56	3	42	-23.068	0	0.054375	0.34263	-0.24699	51.655	-7.7815	-9.6546	-15.212	650	0.11629	0.39855	0.34263	0.14254	31.782	54.435	51.655	35.526
416	57	2	42	-23.068	1	0.054375	0.42615	-0.16346	54.435	-5.001	-12.435	-17.992	531	0.12434	0.42615	0.2971	0.15241	31.782	54.435	47.801	35.526
416	58	2	35	-30.068	1	0.054375	0.36182	-0.22779	49.472	-9.9642	-14.472	-20.029	1419	0.13828	0.36182	0.3304	0.1695	31.782	49.472	47.801	35.526
416	59	3	42	-23.068	1	0.054375	0.36611	-0.22351	47.801	-11.635	-5.8012	-11.358	522	0.15322	0.29286	0.36611	0.18781	31.782	43.696	47.801	35.526
416	60	3	43	-22.068	1	0.054375	0.33741	-0.2522	45.486	-13.95	-2.4858	-8.0429	447	0.16016	0.30612	0.33741	0.19631	31.782	43.696	45.486	35.526
416	61	3	48	-17.068	1	0.054375	0.32546	-0.26416	44.494	-14.943	3.5063	-2.0507	986	0.16305	0.31164	0.32546	0.19986	31.782	43.696	44.494	35.526
416	62	3	52	-13.068	1	0.054375	0.34238	-0.24723	45.893	-13.543	6.1069	0.5498	816	0.15895	0.30382	0.34238	0.19484	31.782	43.696	45.893	35.526
416	63	3	53	-12.068	1	0.054375	0.37281	-0.2168	48.331	-11.106	4.6695	-0.8876	686	0.1516	0.28976	0.37281	0.18583	31.782	43.696	48.331	35.526
416	64	3	56	-9.0676	1	0.054375	0.3968	-0.19282	50.194	-9.2419	5.8058	0.2487	883	0.1458	0.27868	0.3968	0.17872	31.782	43.696	50.194	35.526
416	65	3	59	-6.0676	1	0.054375	0.42731	-0.1623	52.511	-6.9247	6.4885	0.93147	663	0.13843	0.26458	0.42731	0.16968	31.782	43.696	52.511	35.526
416	66	3	63	-2.0676	1	0.054375	0.46207	-0.12754	55.101	-4.335	7.8988	2.3417	814	0.13002	0.24853	0.46207	0.15938	31.782	43.696	55.101	35.526
416	67	3	65	-0.067568	1	0.054375	0.50485	-0.084762	58.254	-1.1824	6.7462	1.1891	565	0.11968	0.22876	0.50485	0.1467	31.782	43.696	58.254	35.526
416	68	3	63	-2.0676	1	0.054375	0.54136	-0.048254	60.946	1.5102	2.0536	-3.5034	378	0.11086	0.21189	0.54136	0.13589	31.782	43.696	60.946	35.526
416	69	3	56	-9.0676	1	0.054375	0.5524	-0.03721	61.766	2.3299	-5.766	-11.323	1416	0.10819	0.20679	0.5524	0.13262	31.782	43.696	61.766	35.526
416	70	3	55	-10.068	1	0.054375	0.5213	-0.068314	59.465	0.028496	-4.4647	-10.022	740	0.11571	0.22116	0.5213	0.14183	31.782	43.696	59.465	35.526
416	71	3	60	-5.0676	1	0.054375	0.49709	-0.092525	57.683	-1.7535	2.3173	-3.2398	705	0.12156	0.23235	0.49709	0.149	31.782	43.696	57.683	35.526
416	72	3	57	-8.0676	1	0.054375	0.50966	-0.079953	58.608	-0.82857	-1.6076	-7.1647	638	0.11852	0.22654	0.50966	0.14528	31.782	43.696	58.608	35.526
416	73	3	59	-6.0676	1	0.054375	0.50094	-0.088674	57.966	-1.4702	1.034	-4.523	756	0.12063	0.23057	0.50094	0.14786	31.782	43.696	57.966	35.526
416	74	3	59	-6.0676	1	0.054375	0.50655	-0.083064	58.379	-1.0575	0.62133	-4.9357	472	0.11927	0.22798	0.50655	0.1462	31.782	43.696	58.379	35.526
416	75	1	18	-47.068	0	0.054375	0.11846	-0.47115	26.281	-33.155	-13.782	-19.339	1014	0.11846	0.22642	0.50992	0.1452	26.281	43.696	58.627	35.526
416	1	3	53	-4.9315	0	0.060938	0.25	-0.42543	0	-47.758	53	42.825	1533	0.25	0.25	0.25	0.25	0	0	0	0
416	2	4	22	-35.932	0	0.060938	0.21375	-0.46169	0	-47.758	22	11.825	636	0.21375	0.21375	0.35875	0.21375	0	0	8.4977	0
416	3	1	43	-14.932	0	0.060938	0.20333	-0.47211	0	-47.758	43	32.825	384	0.20333	0.20333	0.34126	0.25208	0	0	8.4977	3.5273
416	4	2	19	-38.932	0	0.060938	0.18381	-0.49162	0	-47.758	19	8.8247	572	0.27979	0.18381	0.30851	0.22789	6.8943	0	8.4977	3.5273
416	5	3	63	5.0685	1	0.060938	0.29736	-0.37808	8.4977	-39.26	54.502	44.327	306	0.26968	0.21331	0.29736	0.21965	6.8943	3.0463	8.4977	3.5273
416	6	3	63	5.0685	1	0.060938	0.41887	-0.25656	17.236	-30.521	45.764	35.589	538	0.22304	0.17642	0.41887	0.18167	6.8943	3.0463	17.236	3.5273
416	7	3	62	4.0685	1	0.060938	0.52989	-0.14554	24.574	-23.184	37.426	27.251	577	0.18043	0.14272	0.52989	0.14696	6.8943	3.0463	24.574	3.5273
416	8	3	65	7.0685	1	0.060938	0.61902	-0.056416	30.574	-17.183	34.426	24.25	941	0.14622	0.11566	0.61902	0.1191	6.8943	3.0463	30.574	3.5273
416	9	3	65	7.0685	1	0.060938	0.6946	0.01917	36.094	-11.664	28.906	18.731	646	0.11721	0.092713	0.6946	0.09547	6.8943	3.0463	36.094	3.5273
416	10	3	65	7.0685	1	0.060938	0.75104	0.075603	40.729	-7.029	24.271	14.096	1045	0.095553	0.07558	0.75104	0.077829	6.8943	3.0463	40.729	3.5273
416	11	3	62	4.0685	1	0.060938	0.7927	0.11727	44.62	-3.1375	17.38	7.2047	613	0.079562	0.062932	0.7927	0.064804	6.8943	3.0463	44.62	3.5273
416	12	2	14	-43.932	0	0.060938	0.05488	-0.62055	3.0463	-44.711	10.954	0.77839	337	0.069383	0.05488	0.81922	0.056513	6.8943	3.0463	47.407	3.5273
416	13	3	58	0.068493	1	0.060938	0.81418	0.13874	47.407	-0.35091	10.593	0.41808	543	0.068955	0.060703	0.81418	0.056164	6.8943	4.8026	47.407	3.5273
416	14	NaN	NaN	0	0	0.060938	0	0	0	0	0	0	0	0	0	0	0	0	0	0	0
416	15	3	65	7.0685	1	0.060938	0.82933	0.1539	49.105	1.3476	15.895	5.7196	595	0.063333	0.055753	0.82933	0.051585	6.8943	4.8026	49.105	3.5273
416	16	3	62	4.0685	1	0.060938	0.8502	0.17477	51.654	3.896	10.346	0.17113	543	0.055587	0.048935	0.8502	0.045276	6.8943	4.8026	51.654	3.5273
416	17	3	63	5.0685	1	0.060938	0.86263	0.18719	53.312	5.5549	9.6875	-0.48774	558	0.050977	0.044876	0.86263	0.041521	6.8943	4.8026	53.312	3.5273
416	18	1	48	-9.9315	0	0.060938	0.046956	-0.62848	6.8943	-40.863	41.106	30.93	559	0.046956	0.041336	0.87346	0.038246	6.8943	4.8026	54.866	3.5273
416	19	3	65	7.0685	1	0.060938	0.85365	0.17822	54.866	7.1081	10.134	-0.040974	519	0.068572	0.040399	0.85365	0.037378	13.485	4.8026	54.866	3.5273
416	20	3	64	6.0685	1	0.060938	0.86559	0.19016	56.491	8.733	7.5094	-2.6658	945	0.062976	0.037102	0.86559	0.034328	13.485	4.8026	56.491	3.5273
416	21	3	62	4.0685	1	0.060938	0.8739	0.19847	57.695	9.937	4.3054	-5.8699	684	0.059083	0.034809	0.8739	0.032206	13.485	4.8026	57.695	3.5273
416	22	NaN	NaN	0	0	0.060938	0	0	0	0	0	0	0	0	0	0	0	0	0	0	0
416	23	3	59	1.0685	1	0.060938	0.87847	0.20303	58.385	10.627	0.61512	-9.5602	394	0.056945	0.033549	0.87847	0.031041	13.485	4.8026	58.385	3.5273
416	24	3	60	2.0685	1	0.060938	0.87911	0.20367	58.484	10.726	1.5165	-8.6588	638	0.056645	0.033372	0.87911	0.030877	13.485	4.8026	58.484	3.5273
416	25	3	58	0.068493	1	0.060938	0.88067	0.20524	58.727	10.969	-0.72665	-10.902	446	0.055911	0.03294	0.88067	0.030477	13.485	4.8026	58.727	3.5273
416	26	3	62	4.0685	1	0.060938	0.87992	0.20449	58.61	10.853	3.3899	-6.7854	928	0.056262	0.033146	0.87992	0.030668	13.485	4.8026	58.61	3.5273
416	27	3	62	4.0685	1	0.060938	0.88338	0.20794	59.154	11.396	2.8464	-7.3289	631	0.054643	0.032193	0.88338	0.029786	13.485	4.8026	59.154	3.5273
416	28	3	56	-1.9315	1	0.060938	0.88621	0.21078	59.61	11.852	-3.61	-13.785	2235	0.053315	0.03141	0.88621	0.029062	13.485	4.8026	59.61	3.5273
416	29	3	61	3.0685	1	0.060938	0.88261	0.20717	59.031	11.274	1.9688	-8.2065	1306	0.055004	0.032405	0.88261	0.029983	13.485	4.8026	59.031	3.5273
416	30	3	55	-2.9315	1	0.060938	0.88459	0.20915	59.347	11.589	-4.3469	-14.522	715	0.054077	0.031859	0.88459	0.029477	13.485	4.8026	59.347	3.5273
416	31	3	54	-3.9315	1	0.060938	0.88018	0.20474	58.65	10.892	-4.6499	-14.825	1542	0.056142	0.033076	0.88018	0.030603	13.485	4.8026	58.65	3.5273
416	32	1	42	-15.932	0	0.060938	0.058426	-0.61701	13.485	-34.273	28.515	18.34	300	0.058426	0.034421	0.8753	0.031848	13.485	4.8026	57.904	3.5273
416	33	1	40	-17.932	0	0.060938	0.075775	-0.59966	18.057	-29.701	21.943	11.768	723	0.075775	0.033787	0.85918	0.031261	18.057	4.8026	57.904	3.5273
416	34	3	48	-9.9315	1	0.060938	0.84389	0.16845	57.904	10.147	-9.9044	-20.08	529	0.092222	0.033186	0.84389	0.030705	21.575	4.8026	57.904	3.5273
416	35	2	32	-25.932	0	0.060938	0.035987	-0.63945	4.8026	-42.955	27.197	17.022	492	0.10001	0.035987	0.83071	0.033296	21.575	4.8026	56.316	3.5273
416	36	3	51	-6.9315	1	0.060938	0.82171	0.14628	56.316	8.5588	-5.3164	-15.492	719	0.098923	0.046432	0.82171	0.032936	21.575	9.1632	56.316	3.5273
416	37	1	45	-12.932	0	0.060938	0.10322	-0.57222	21.575	-26.182	23.425	13.25	1286	0.10322	0.048447	0.81397	0.034365	21.575	9.1632	55.464	3.5273
416	38	3	53	-4.9315	1	0.060938	0.79292	0.11749	55.464	7.7064	-2.464	-12.639	577	0.1264	0.047194	0.79292	0.033476	25.331	9.1632	55.464	3.5273
416	39	3	52	-5.9315	1	0.060938	0.78894	0.11351	55.069	7.3114	-3.0689	-13.244	673	0.12883	0.048102	0.78894	0.03412	25.331	9.1632	55.069	3.5273
416	40	3	54	-3.9315	1	0.060938	0.78391	0.10847	54.577	6.8193	-0.57688	-10.752	348	0.13191	0.049249	0.78391	0.034934	25.331	9.1632	54.577	3.5273
416	41	3	59	1.0685	1	0.060938	0.78295	0.10752	54.484	6.7268	4.5156	-5.6597	1758	0.13249	0.049467	0.78295	0.035089	25.331	9.1632	54.484	3.5273
416	42	3	62	4.0685	1	0.060938	0.79036	0.11492	55.208	7.4508	6.7916	-3.3837	579	0.12797	0.04778	0.79036	0.033892	25.331	9.1632	55.208	3.5273
416	43	3	63	5.0685	1	0.060938	0.80114	0.1257	56.297	8.5398	6.7027	-3.4726	620	0.12139	0.045322	0.80114	0.032148	25.331	9.1632	56.297	3.5273
416	44	3	63	5.0685	1	0.060938	0.81137	0.13593	57.372	9.6144	5.628	-4.5473	597	0.11515	0.042991	0.81137	0.030495	25.331	9.1632	57.372	3.5273
416	45	1	47	-10.932	0	0.060938	0.1101	-0.56534	25.331	-22.427	21.669	11.494	834	0.1101	0.041106	0.81964	0.029158	25.331	9.1632	58.274	3.5273
416	46	3	62	4.0685	1	0.060938	0.7989	0.12346	58.274	10.517	3.7257	-6.4496	718	0.13262	0.040066	0.7989	0.02842	28.805	9.1632	58.274	3.5273
416	47	3	62	4.0685	1	0.060938	0.80468	0.12925	58.872	11.114	3.1283	-7.047	665	0.1288	0.038913	0.80468	0.027602	28.805	9.1632	58.872	3.5273
416	48	3	65	7.0685	1	0.060938	0.80944	0.13401	59.373	11.616	5.6267	-4.5485	802	0.12566	0.037965	0.80944	0.02693	28.805	9.1632	59.373	3.5273
416	49	3	65	7.0685	1	0.060938	0.81778	0.14234	60.275	12.518	4.7246	-5.4507	1047	0.12017	0.036305	0.81778	0.025752	28.805	9.1632	60.275	3.5273
416	50	3	65	7.0685	1	0.060938	0.82456	0.14912	61.033	13.275	3.9671	-6.2082	670	0.1157	0.034954	0.82456	0.024794	28.805	9.1632	61.033	3.5273
416	51	3	65	7.0685	1	0.060938	0.83009	0.15466	61.669	13.911	3.331	-6.8443	926	0.11204	0.033851	0.83009	0.024011	28.805	9.1632	61.669	3.5273
416	52	3	67	9.0685	1	0.060938	0.83463	0.1592	62.203	14.445	4.797	-5.3783	675	0.10905	0.032946	0.83463	0.02337	28.805	9.1632	62.203	3.5273
416	53	3	64	6.0685	1	0.060938	0.841	0.16557	62.972	15.215	1.0278	-9.1474	543	0.10485	0.031678	0.841	0.02247	28.805	9.1632	62.972	3.5273
416	54	3	67	9.0685	1	0.060938	0.84234	0.16691	63.137	15.379	3.863	-6.3122	671	0.10397	0.031411	0.84234	0.022281	28.805	9.1632	63.137	3.5273
416	55	3	66	8.0685	1	0.060938	0.84729	0.17185	63.756	15.999	2.2437	-7.9316	402	0.10071	0.030425	0.84729	0.021581	28.805	9.1632	63.756	3.5273
416	56	3	69	11.068	1	0.060938	0.8501	0.17467	64.116	16.359	4.8839	-5.2913	2590	0.098849	0.029864	0.8501	0.021184	28.805	9.1632	64.116	3.5273
416	57	3	69	11.068	1	0.060938	0.85608	0.18065	64.899	17.142	4.1009	-6.0744	687	0.094906	0.028673	0.85608	0.020339	28.805	9.1632	64.899	3.5273
416	58	3	72	14.068	1	0.060938	0.86095	0.18551	65.557	17.799	6.4434	-3.7319	880	0.091697	0.027704	0.86095	0.019651	28.805	9.1632	65.557	3.5273
416	59	3	74	16.068	1	0.060938	0.86832	0.19288	66.59	18.832	7.4103	-2.765	583	0.086839	0.026236	0.86832	0.01861	28.805	9.1632	66.59	3.5273
416	60	3	74	16.068	1	0.060938	0.87638	0.20094	67.778	20.02	6.2222	-3.9531	310	0.081524	0.02463	0.87638	0.017471	28.805	9.1632	67.778	3.5273
416	61	1	56	-1.9315	0	0.060938	0.077279	-0.59816	28.805	-18.952	27.195	17.02	532	0.077279	0.023348	0.88281	0.016561	28.805	9.1632	68.775	3.5273
416	62	4	31	-26.932	0	0.060938	0.016181	-0.65925	3.5273	-44.23	27.473	17.297	832	0.098482	0.022811	0.86253	0.016181	33.165	9.1632	68.775	3.5273
416	63	2	30	-27.932	0	0.060938	0.022698	-0.65274	9.1632	-38.594	20.837	10.662	450	0.097994	0.022698	0.85825	0.021057	33.165	9.1632	68.775	7.9321
416	64	3	68	10.068	1	0.060938	0.85387	0.17844	68.775	21.018	-0.77545	-10.951	592	0.097494	0.027681	0.85387	0.02095	33.165	12.504	68.775	7.9321
416	65	3	70	12.068	1	0.060938	0.85293	0.17749	68.651	20.894	1.3489	-8.8264	1065	0.098127	0.027861	0.85293	0.021086	33.165	12.504	68.651	7.9321
416	66	3	67	9.0685	1	0.060938	0.85457	0.17914	68.867	21.11	-1.8674	-12.043	622	0.097029	0.027549	0.85457	0.02085	33.165	12.504	68.867	7.9321
416	67	3	64	6.0685	1	0.060938	0.85229	0.17686	68.568	20.81	-4.568	-14.743	1544	0.098552	0.027981	0.85229	0.021177	33.165	12.504	68.568	7.9321
416	68	3	63	5.0685	1	0.060938	0.84658	0.17115	67.836	20.078	-4.8356	-15.011	1141	0.10236	0.029062	0.84658	0.021996	33.165	12.504	67.836	7.9321
416	69	3	67	9.0685	1	0.060938	0.84035	0.16491	67.06	19.303	-0.060281	-10.236	917	0.10652	0.030244	0.84035	0.02289	33.165	12.504	67.06	7.9321
416	70	3	65	7.0685	1	0.060938	0.84027	0.16483	67.051	19.293	-2.0506	-12.226	1040	0.10657	0.030259	0.84027	0.022901	33.165	12.504	67.051	7.9321
416	71	3	62	4.0685	1	0.060938	0.83756	0.16212	66.722	18.964	-4.7218	-14.897	2229	0.10838	0.030772	0.83756	0.023289	33.165	12.504	66.722	7.9321
416	72	3	63	5.0685	1	0.060938	0.83118	0.15575	65.965	18.207	-2.9648	-13.14	1366	0.11263	0.031979	0.83118	0.024203	33.165	12.504	65.965	7.9321
416	73	3	63	5.0685	1	0.060938	0.82708	0.15165	65.489	17.732	-2.4894	-12.665	265	0.11537	0.032757	0.82708	0.024792	33.165	12.504	65.489	7.9321
416	74	3	67	9.0685	1	0.060938	0.82357	0.14814	65.09	17.333	1.9097	-8.2656	1207	0.11771	0.033421	0.82357	0.025294	33.165	12.504	65.09	7.9321
416	75	3	66	8.0685	1	0.060938	0.82627	0.15083	65.493	17.736	0.60353	-9.5717	644	0.11591	0.03291	0.82627	0.024908	33.165	12.504	65.493	7.9321
417	1	2	32	-31.507	0	194.82	0.25	-0.52728	0	-0.024845	32	-31.482	1941	0.25	0.25	0.25	0.25	0	0	0	0
417	2	1	81	17.493	0	194.82	0.24498	-0.5323	0	-0.024845	81	17.518	656	0.24498	0.26506	0.24498	0.24498	0	0.00040436	0	0
417	3	3	31	-32.507	0	194.82	0.23242	-0.54486	0	-0.024845	31	-32.482	409	0.2837	0.25147	0.23242	0.23242	0.0010235	0.00040436	0	0
417	4	4	12	-51.507	0	194.82	0.22821	-0.54907	0	-0.024845	12	-51.482	660	0.27857	0.24691	0.24631	0.22821	0.0010235	0.00040436	0.00039173	0
417	5	1	87	23.493	1	194.82	0.27668	-0.5006	0.0010235	-0.023822	86.999	23.517	610	0.27668	0.24524	0.24463	0.23345	0.0010235	0.00040436	0.00039173	0.00015164
417	6	2	34	-29.507	0	194.82	0.23004	-0.54724	0.00040436	-0.024441	34	-29.482	693	0.32151	0.23004	0.22947	0.21898	0.0021229	0.00040436	0.00039173	0.00015164
417	7	1	88	24.493	1	194.82	0.31518	-0.4621	0.0021229	-0.022722	87.998	24.516	980	0.31518	0.24519	0.22495	0.21467	0.0021229	0.000834	0.00039173	0.00015164
417	8	3	28	-35.507	0	194.82	0.20902	-0.56826	0.00039173	-0.024453	28	-35.482	617	0.36369	0.22782	0.20902	0.19946	0.0032349	0.000834	0.00039173	0.00015164
417	9	1	88	24.493	1	194.82	0.35835	-0.41893	0.0032349	-0.02161	87.997	24.515	453	0.35835	0.22448	0.22064	0.19653	0.0032349	0.000834	0.00074554	0.00015164
417	10	1	91	27.493	1	194.82	0.40953	-0.36775	0.0043468	-0.020498	90.996	27.514	670	0.40953	0.20657	0.20304	0.18086	0.0043468	0.000834	0.00074554	0.00015164
417	11	1	92	28.493	1	194.82	0.46459	-0.31269	0.0054967	-0.019348	91.995	28.512	383	0.46459	0.18731	0.18411	0.16399	0.0054967	0.000834	0.00074554	0.00015164
417	12	1	91	27.493	1	194.82	0.52113	-0.25614	0.0066592	-0.018186	90.993	27.511	660	0.52113	0.16753	0.16467	0.14667	0.0066592	0.000834	0.00074554	0.00015164
417	13	1	87	23.493	1	194.82	0.57654	-0.20074	0.007809	-0.017036	86.992	23.51	538	0.57654	0.14814	0.14561	0.1297	0.007809	0.000834	0.00074554	0.00015164
417	14	1	84	20.493	1	194.82	0.62779	-0.14949	0.0089083	-0.015937	83.991	20.509	576	0.62779	0.13021	0.12799	0.11401	0.0089083	0.000834	0.00074554	0.00015164
417	15	1	83	19.493	1	194.82	0.6747	-0.10258	0.0099696	-0.014876	82.99	19.508	572	0.6747	0.1138	0.11186	0.099637	0.0099696	0.000834	0.00074554	0.00015164
417	16	4	5	-58.507	0	194.82	0.08642	-0.69086	0.00015164	-0.024694	4.9998	-58.482	424	0.71785	0.098707	0.097021	0.08642	0.011018	0.000834	0.00074554	0.00015164
417	17	1	77	13.493	1	194.82	0.71708	-0.060194	0.011018	-0.013827	76.989	13.507	322	0.71708	0.098602	0.096917	0.087397	0.011018	0.000834	0.00074554	0.00021482
417	18	1	75	11.493	1	194.82	0.75391	-0.023368	0.011991	-0.012854	74.988	11.506	480	0.75391	0.085767	0.084302	0.076021	0.011991	0.000834	0.00074554	0.00021482
417	19	2	41	-22.507	0	194.82	0.074396	-0.70288	0.000834	-0.024011	40.999	-22.483	1443	0.78654	0.074396	0.073125	0.065942	0.012939	0.000834	0.00074554	0.00021482
417	20	1	68	4.4932	1	194.82	0.78037	0.0030943	0.012939	-0.011906	67.987	4.505	569	0.78037	0.081652	0.072552	0.065425	0.012939	0.0013521	0.00074554	0.00021482
417	21	3	35	-28.507	0	194.82	0.06352	-0.71376	0.00074554	-0.0241	34.999	-28.483	524	0.80771	0.071488	0.06352	0.057281	0.013798	0.0013521	0.00074554	0.00021482
417	22	1	65	1.4932	1	194.82	0.80312	0.025843	0.013798	-0.011047	64.986	1.5042	702	0.80312	0.071081	0.068843	0.056955	0.013798	0.0013521	0.0011878	0.00021482
417	23	4	10	-53.507	0	194.82	0.04999	-0.72729	0.00021482	-0.02463	9.9998	-53.482	590	0.8272	0.062388	0.060423	0.04999	0.014619	0.0013521	0.0011878	0.00021482
417	24	1	69	5.4932	1	194.82	0.82617	0.048891	0.014619	-0.010226	68.985	5.5034	666	0.82617	0.062311	0.060348	0.051172	0.014619	0.0013521	0.0011878	0.00034118
417	25	2	44	-19.507	0	194.82	0.054046	-0.72323	0.0013521	-0.023493	43.999	-19.483	1942	0.84923	0.054046	0.052344	0.044384	0.015491	0.0013521	0.0011878	0.00034118
417	26	1	68	4.4932	1	194.82	0.84401	0.06673	0.015491	-0.0093544	67.985	4.5025	581	0.84401	0.059859	0.052022	0.044112	0.015491	0.0019081	0.0011878	0.00034118
417	27	1	67	3.4932	1	194.82	0.8648	0.08752	0.01635	-0.0084953	66.984	3.5016	497	0.8648	0.051881	0.045089	0.038233	0.01635	0.0019081	0.0011878	0.00034118
417	28	1	71	7.4932	1	194.82	0.88295	0.10567	0.017196	-0.0076489	70.983	7.5008	1090	0.88295	0.044917	0.039037	0.033101	0.017196	0.0019081	0.0011878	0.00034118
417	29	1	71	7.4932	1	194.82	0.89983	0.12256	0.018093	-0.0067519	70.982	7.4999	345	0.89983	0.038437	0.033405	0.028325	0.018093	0.0019081	0.0011878	0.00034118
417	30	1	68	4.4932	1	194.82	0.91452	0.13724	0.01899	-0.005855	67.981	4.499	349	0.91452	0.032801	0.028507	0.024172	0.01899	0.0019081	0.0011878	0.00034118
417	31	1	67	3.4932	1	194.82	0.92673	0.14945	0.019849	-0.0049959	66.98	3.4981	720	0.92673	0.028117	0.024436	0.02072	0.019849	0.0019081	0.0011878	0.00034118
417	32	1	68	4.4932	1	194.82	0.93717	0.15989	0.020696	-0.0041495	67.979	4.4973	373	0.93717	0.024111	0.020955	0.017768	0.020696	0.0019081	0.0011878	0.00034118
417	33	1	71	7.4932	1	194.82	0.94633	0.16905	0.021555	-0.0032905	70.978	7.4964	373	0.94633	0.020595	0.017899	0.015177	0.021555	0.0019081	0.0011878	0.00034118
417	34	1	73	9.4932	1	194.82	0.95454	0.17726	0.022452	-0.0023936	72.978	9.4955	843	0.95454	0.017443	0.01516	0.012855	0.022452	0.0019081	0.0011878	0.00034118
417	35	1	68	4.4932	1	194.82	0.96173	0.18445	0.023374	-0.0014715	67.977	4.4946	327	0.96173	0.014685	0.012762	0.010822	0.023374	0.0019081	0.0011878	0.00034118
417	36	1	70	6.4932	1	194.82	0.96744	0.19016	0.024233	-0.00061247	69.976	6.4938	345	0.96744	0.012496	0.01086	0.0092084	0.024233	0.0019081	0.0011878	0.00034118
417	37	1	69	5.4932	1	194.82	0.97245	0.19517	0.025117	0.00027177	68.975	5.4929	379	0.97245	0.010573	0.0091885	0.0077913	0.025117	0.0019081	0.0011878	0.00034118
417	38	1	68	4.4932	1	194.82	0.97665	0.19937	0.025989	0.0011434	67.974	4.492	733	0.97665	0.0089601	0.007787	0.006603	0.025989	0.0019081	0.0011878	0.00034118
417	39	1	67	3.4932	1	194.82	0.98018	0.2029	0.026847	0.0020023	66.973	3.4911	949	0.98018	0.0076068	0.0066109	0.0056057	0.026847	0.0019081	0.0011878	0.00034118
417	40	NaN	NaN	0	0	194.82	0	0	0	0	0	0	0	0	0	0	0	0	0	0	0
417	41	1	59	-4.5068	1	194.82	0.98314	0.20586	0.027694	0.0028486	58.972	-4.5097	769	0.98314	0.0064701	0.005623	0.004768	0.027694	0.0019081	0.0011878	0.00034118
417	42	1	62	-1.5068	1	194.82	0.98538	0.20811	0.028439	0.0035938	61.972	-1.5105	794	0.98538	0.0056085	0.0048743	0.0041331	0.028439	0.0019081	0.0011878	0.00034118
417	43	1	61	-2.5068	1	194.82	0.98743	0.21015	0.029222	0.0043769	60.971	-2.5112	777	0.98743	0.0048249	0.0041933	0.0035557	0.029222	0.0019081	0.0011878	0.00034118
417	44	1	63	-0.50685	1	194.82	0.98916	0.21188	0.029993	0.0051473	62.97	-0.51201	733	0.98916	0.0041597	0.0036152	0.0030654	0.029993	0.0019081	0.0011878	0.00034118
417	45	1	64	0.49315	1	194.82	0.9907	0.21342	0.030788	0.0059431	63.969	0.4872	538	0.9907	0.003568	0.0031008	0.0026293	0.030788	0.0019081	0.0011878	0.00034118
417	46	1	65	1.4932	1	194.82	0.99205	0.21477	0.031597	0.0067514	64.968	1.4864	365	0.99205	0.0030522	0.0026526	0.0022493	0.031597	0.0019081	0.0011878	0.00034118
417	47	1	67	3.4932	1	194.82	0.99321	0.21594	0.032418	0.0075724	66.968	3.4856	323	0.99321	0.0026041	0.0022632	0.0019191	0.032418	0.0019081	0.0011878	0.00034118
417	48	1	76	12.493	1	194.82	0.99424	0.21696	0.033264	0.0084186	75.967	12.485	468	0.99424	0.0022106	0.0019212	0.0016291	0.033264	0.0019081	0.0011878	0.00034118
417	49	1	73	9.4932	1	194.82	0.99522	0.21794	0.034224	0.0093785	72.966	9.4838	885	0.99522	0.0018354	0.0015951	0.0013525	0.034224	0.0019081	0.0011878	0.00034118
417	50	1	72	8.4932	1	194.82	0.996	0.21872	0.035146	0.010301	71.965	8.4828	370	0.996	0.0015348	0.0013339	0.001131	0.035146	0.0019081	0.0011878	0.00034118
417	51	1	66	2.4932	1	194.82	0.99665	0.21937	0.036055	0.01121	65.964	2.4819	411	0.99665	0.0012864	0.001118	0.00094802	0.036055	0.0019081	0.0011878	0.00034118
417	52	1	64	0.49315	1	194.82	0.99715	0.21987	0.036889	0.012043	63.963	0.4811	382	0.99715	0.0010942	0.00095092	0.00080633	0.036889	0.0019081	0.0011878	0.00034118
417	53	1	63	-0.50685	1	194.82	0.99756	0.22029	0.037697	0.012852	62.962	-0.51971	709	0.99756	0.00093514	0.00081272	0.00068914	0.037697	0.0019081	0.0011878	0.00034118
417	54	1	60	-3.5068	1	194.82	0.99791	0.22063	0.038493	0.013647	59.962	-3.5205	1344	0.99791	0.00080115	0.00069626	0.00059039	0.038493	0.0019081	0.0011878	0.00034118
417	55	1	60	-3.5068	1	194.82	0.9982	0.22092	0.03925	0.014405	59.961	-3.5213	1006	0.9982	0.0006914	0.00060088	0.00050952	0.03925	0.0019081	0.0011878	0.00034118
417	56	1	64	0.49315	1	194.82	0.99845	0.22117	0.040008	0.015163	63.96	0.47798	1222	0.99845	0.00059667	0.00051855	0.0004397	0.040008	0.0019081	0.0011878	0.00034118
417	57	NaN	NaN	0	0	194.82	0	0	0	0	0	0	0	0	0	0	0	0	0	0	0
417	58	1	64	0.49315	1	194.82	0.99867	0.22139	0.040816	0.015971	63.959	0.47717	489	0.99867	0.00050985	0.0004431	0.00037573	0.040816	0.0019081	0.0011878	0.00034118
417	59	1	66	2.4932	1	194.82	0.99886	0.22159	0.041624	0.016779	65.958	2.4764	519	0.99886	0.00043566	0.00037862	0.00032105	0.041624	0.0019081	0.0011878	0.00034118
417	60	1	61	-2.5068	1	194.82	0.99903	0.22176	0.042458	0.017613	60.958	-2.5245	425	0.99903	0.00037043	0.00032193	0.00027298	0.042458	0.0019081	0.0011878	0.00034118
417	61	1	62	-1.5068	1	194.82	0.99917	0.22189	0.043228	0.018383	61.957	-1.5252	707	0.99917	0.00031885	0.00027711	0.00023497	0.043228	0.0019081	0.0011878	0.00034118
417	62	1	61	-2.5068	1	194.82	0.99929	0.22201	0.044011	0.019166	60.956	-2.526	940	0.99929	0.00027378	0.00023793	0.00020176	0.044011	0.0019081	0.0011878	0.00034118
417	63	1	60	-3.5068	1	194.82	0.99939	0.22211	0.044781	0.019936	59.955	-3.5268	949	0.99939	0.00023565	0.0002048	0.00017366	0.044781	0.0019081	0.0011878	0.00034118
417	64	1	63	-0.50685	1	194.82	0.99947	0.22219	0.045539	0.020694	62.954	-0.52755	403	0.99947	0.00020333	0.00017671	0.00014984	0.045539	0.0019081	0.0011878	0.00034118
417	65	1	64	0.49315	1	194.82	0.99955	0.22227	0.046334	0.021489	63.954	0.47165	764	0.99955	0.00017415	0.00015135	0.00012834	0.046334	0.0019081	0.0011878	0.00034118
417	66	1	67	3.4932	1	194.82	0.99961	0.22233	0.047143	0.022297	66.953	3.4708	516	0.99961	0.00014879	0.00012931	0.00010965	0.047143	0.0019081	0.0011878	0.00034118
417	67	1	68	4.4932	1	194.82	0.99967	0.22239	0.047989	0.023143	67.952	4.47	803	0.99967	0.00012619	0.00010967	9.2994e-05	0.047989	0.0019081	0.0011878	0.00034118
417	68	1	68	4.4932	1	194.82	0.99972	0.22244	0.048847	0.024002	67.951	4.4691	881	0.99972	0.00010676	9.278e-05	7.8673e-05	0.048847	0.0019081	0.0011878	0.00034118
417	69	1	66	2.4932	1	194.82	0.99976	0.22249	0.049706	0.024861	65.95	2.4683	439	0.99976	9.0316e-05	7.8492e-05	6.6557e-05	0.049706	0.0019081	0.0011878	0.00034118
417	70	1	66	2.4932	1	194.82	0.9998	0.22252	0.050539	0.025694	65.949	2.4674	508	0.9998	7.6784e-05	6.6731e-05	5.6584e-05	0.050539	0.0019081	0.0011878	0.00034118
417	71	1	62	-1.5068	1	194.82	0.99983	0.22255	0.051373	0.026527	61.949	-1.5334	937	0.99983	6.5279e-05	5.6733e-05	4.8106e-05	0.051373	0.0019081	0.0011878	0.00034118
417	72	1	62	-1.5068	1	194.82	0.99985	0.22258	0.052155	0.02731	61.948	-1.5342	959	0.99985	5.6047e-05	4.8709e-05	4.1303e-05	0.052155	0.0019081	0.0011878	0.00034118
417	73	1	57	-6.5068	1	194.82	0.99987	0.2226	0.052938	0.028093	56.947	-6.535	651	0.99987	4.812e-05	4.182e-05	3.5461e-05	0.052938	0.0019081	0.0011878	0.00034118
417	74	1	57	-6.5068	1	194.82	0.99989	0.22261	0.053658	0.028813	56.946	-6.5357	364	0.99989	4.1826e-05	3.635e-05	3.0823e-05	0.053658	0.0019081	0.0011878	0.00034118
417	75	1	59	-4.5068	1	194.82	0.99991	0.22263	0.055122	0.030277	58.946	-4.5364	487	0.99991	3.6356e-05	3.1596e-05	2.6792e-05	0.055122	0.0019081	0.0011878	0.00034118
417	1	1	9	-54.73	1	0.088828	0.25	-0.6548	0	-57.149	9	2.4039	1527	0.25	0.25	0.25	0.25	0	0	0	0
417	2	2	54	-9.7297	0	0.088828	0.242	-0.6628	0	-57.149	54	47.404	663	0.27399	0.242	0.242	0.242	1.3977	0	0	0
417	3	4	75	11.27	0	0.088828	0.1909	-0.71391	0	-57.149	75	68.404	903	0.21613	0.40208	0.1909	0.1909	1.3977	8.3861	0	0
417	4	4	77	13.27	1	0.088828	0.39901	-0.50579	11.647	-45.502	65.353	58.757	757	0.16054	0.29866	0.14179	0.39901	1.3977	8.3861	0	11.647
417	5	4	77	13.27	1	0.088828	0.62056	-0.28424	21.796	-35.353	55.204	48.607	374	0.10136	0.18856	0.089523	0.62056	1.3977	8.3861	0	21.796
417	6	4	73	9.2703	1	0.088828	0.7779	-0.12691	30.369	-26.78	42.631	36.035	839	0.059329	0.11037	0.052402	0.7779	1.3977	8.3861	0	30.369
417	7	4	67	3.2703	1	0.088828	0.86313	-0.041673	36.99	-20.159	30.01	23.414	618	0.036561	0.068016	0.032292	0.86313	1.3977	8.3861	0	36.99
417	8	4	70	6.2703	1	0.088828	0.90513	0.00032197	41.65	-15.499	28.35	21.754	1129	0.025343	0.047147	0.022384	0.90513	1.3977	8.3861	0	41.65
417	9	3	11	-52.73	0	0.088828	0.015619	-0.88918	0	-57.149	11	4.4039	447	0.017683	0.032897	0.015619	0.9338	1.3977	8.3861	0	46.053
417	10	4	77	13.27	1	0.088828	0.93142	0.026614	46.053	-11.096	30.947	24.351	328	0.017638	0.032813	0.018132	0.93142	1.3977	8.3861	1.7083	46.053
417	11	4	74	10.27	1	0.088828	0.95416	0.049352	50.859	-6.2903	23.141	16.545	445	0.01179	0.021934	0.01212	0.95416	1.3977	8.3861	1.7083	50.859
417	12	4	73	9.2703	1	0.088828	0.96626	0.061458	54.453	-2.6965	18.547	11.951	708	0.0086768	0.016142	0.0089196	0.96626	1.3977	8.3861	1.7083	54.453
417	13	4	74	10.27	1	0.088828	0.97368	0.068874	57.333	0.18383	16.667	10.071	617	0.0067696	0.012594	0.006959	0.97368	1.3977	8.3861	1.7083	57.333
417	14	4	75	11.27	1	0.088828	0.97897	0.074167	59.921	2.7722	15.079	8.4825	385	0.0054084	0.010061	0.0055597	0.97897	1.3977	8.3861	1.7083	59.921
417	15	4	79	15.27	1	0.088828	0.98285	0.078048	62.263	5.1138	16.737	10.141	458	0.0044101	0.0082044	0.0045335	0.98285	1.3977	8.3861	1.7083	62.263
417	16	4	81	17.27	1	0.088828	0.98634	0.081535	64.862	7.713	16.138	9.5416	445	0.0035133	0.006536	0.0036116	0.98634	1.3977	8.3861	1.7083	64.862
417	17	4	84	20.27	1	0.088828	0.98904	0.084232	67.368	10.219	16.632	10.035	1260	0.0028198	0.0052459	0.0028987	0.98904	1.3977	8.3861	1.7083	67.368
417	18	4	81	17.27	1	0.088828	0.99126	0.08646	69.951	12.802	11.049	4.4527	510	0.0022468	0.0041798	0.0023096	0.99126	1.3977	8.3861	1.7083	69.951
417	19	4	81	17.27	1	0.088828	0.99249	0.087686	71.667	14.518	9.3329	2.7368	541	0.0019315	0.0035933	0.0019856	0.99249	1.3977	8.3861	1.7083	71.667
417	20	4	79	15.27	1	0.088828	0.99339	0.088587	73.116	15.967	5.8835	-0.71257	453	0.0016997	0.0031621	0.0017473	0.99339	1.3977	8.3861	1.7083	73.116
417	21	4	76	12.27	1	0.088828	0.9939	0.089099	74.03	16.881	1.9698	-4.6263	579	0.001568	0.0029171	0.0016119	0.9939	1.3977	8.3861	1.7083	74.03
417	22	4	80	16.27	1	0.088828	0.99407	0.089262	74.336	17.187	5.6639	-0.93217	681	0.0015263	0.0028394	0.001569	0.99407	1.3977	8.3861	1.7083	74.336
417	23	4	79	15.27	1	0.088828	0.99451	0.089705	75.216	18.066	3.7843	-2.8118	833	0.0014122	0.0026272	0.0014517	0.99451	1.3977	8.3861	1.7083	75.216
417	24	4	72	8.2703	1	0.088828	0.99479	0.089983	75.803	18.654	-3.8034	-10.399	1723	0.0013407	0.0024942	0.0013782	0.99479	1.3977	8.3861	1.7083	75.803
417	25	4	72	8.2703	1	0.088828	0.99451	0.089704	75.213	18.064	-3.2127	-9.8088	384	0.0014125	0.0026278	0.0014521	0.99451	1.3977	8.3861	1.7083	75.213
417	26	4	73	9.2703	1	0.088828	0.99426	0.089456	74.714	17.565	-1.7138	-8.3099	908	0.0014762	0.0027462	0.0015175	0.99426	1.3977	8.3861	1.7083	74.714
417	27	4	75	11.27	1	0.088828	0.99412	0.08932	74.448	17.298	0.55236	-6.0437	496	0.0015113	0.0028115	0.0015536	0.99412	1.3977	8.3861	1.7083	74.448
417	28	4	74	10.27	1	0.088828	0.99417	0.089364	74.533	17.384	-0.53342	-7.1295	922	0.0014999	0.0027903	0.0015419	0.99417	1.3977	8.3861	1.7083	74.533
417	29	4	74	10.27	1	0.088828	0.99413	0.089321	74.451	17.301	-0.45058	-7.0467	869	0.0015109	0.0028108	0.0015532	0.99413	1.3977	8.3861	1.7083	74.451
417	30	4	74	10.27	1	0.088828	0.99409	0.089285	74.381	17.231	-0.38061	-6.9767	490	0.0015203	0.0028282	0.0015628	0.99409	1.3977	8.3861	1.7083	74.381
417	31	4	77	13.27	1	0.088828	0.99406	0.089254	74.321	17.172	2.6785	-3.9176	410	0.0015282	0.002843	0.001571	0.99406	1.3977	8.3861	1.7083	74.321
417	32	4	79	15.27	1	0.088828	0.99427	0.089468	74.737	17.588	4.2625	-2.3336	881	0.0014731	0.0027405	0.0015143	0.99427	1.3977	8.3861	1.7083	74.737
417	33	4	77	13.27	1	0.088828	0.9946	0.089794	75.399	18.25	1.6006	-4.9955	803	0.0013894	0.0025848	0.0014283	0.9946	1.3977	8.3861	1.7083	75.399
417	34	4	72	8.2703	1	0.088828	0.99471	0.089911	75.648	18.499	-3.648	-10.244	615	0.0013593	0.0025287	0.0013973	0.99471	1.3977	8.3861	1.7083	75.648
417	35	4	69	5.2703	1	0.088828	0.99444	0.08964	75.081	17.932	-6.0815	-12.678	618	0.001429	0.0026585	0.001469	0.99444	1.3977	8.3861	1.7083	75.081
417	36	4	66	2.2703	1	0.088828	0.99396	0.089157	74.137	16.988	-8.137	-14.733	1124	0.0015533	0.0028897	0.0015968	0.99396	1.3977	8.3861	1.7083	74.137
417	37	4	66	2.2703	1	0.088828	0.99325	0.088444	72.873	15.724	-6.8734	-13.469	596	0.0017366	0.0032307	0.0017852	0.99325	1.3977	8.3861	1.7083	72.873
417	38	4	67	3.2703	1	0.088828	0.99258	0.087777	71.806	14.657	-4.806	-11.402	1209	0.001908	0.0035496	0.0019614	0.99258	1.3977	8.3861	1.7083	71.806
417	39	4	65	1.2703	1	0.088828	0.99208	0.087273	71.06	13.91	-6.0596	-12.656	1092	0.0020378	0.003791	0.0020948	0.99208	1.3977	8.3861	1.7083	71.06
417	40	NaN	NaN	0	0	0.088828	0	0	0	0	0	0	0	0	0	0	0	0	0	0	0
417	41	4	63	-0.72973	1	0.088828	0.99139	0.086588	70.119	12.969	-7.1186	-13.715	384	0.0022139	0.0041187	0.0022758	0.99139	1.3977	8.3861	1.7083	70.119
417	42	4	58	-5.7297	1	0.088828	0.99051	0.085708	69.013	11.864	-11.013	-17.609	822	0.0024402	0.0045396	0.0025084	0.99051	1.3977	8.3861	1.7083	69.013
417	43	4	57	-6.7297	1	0.088828	0.98897	0.084169	67.303	10.154	-10.303	-16.899	915	0.0028361	0.0052762	0.0029155	0.98897	1.3977	8.3861	1.7083	67.303
417	44	4	56	-7.7297	1	0.088828	0.98731	0.082506	65.703	8.5536	-9.7028	-16.299	865	0.0032638	0.0060718	0.0033551	0.98731	1.3977	8.3861	1.7083	65.703
417	45	4	57	-6.7297	1	0.088828	0.98552	0.080715	64.196	7.0468	-7.196	-13.792	479	0.0037244	0.0069287	0.0038286	0.98552	1.3977	8.3861	1.7083	64.196
417	46	4	58	-5.7297	1	0.088828	0.98403	0.079227	63.078	5.9292	-5.0784	-11.675	533	0.0041069	0.0076403	0.0042218	0.98403	1.3977	8.3861	1.7083	63.078
417	47	4	54	-9.7297	1	0.088828	0.98289	0.078088	62.29	5.1406	-8.2898	-14.886	783	0.0043998	0.0081852	0.0045229	0.98289	1.3977	8.3861	1.7083	62.29
417	48	4	58	-5.7297	1	0.088828	0.98086	0.076055	61.002	3.8532	-3.0024	-9.5985	489	0.0049227	0.0091579	0.0050604	0.98086	1.3977	8.3861	1.7083	61.002
417	49	4	59	-4.7297	1	0.088828	0.98007	0.075262	60.536	3.3869	-1.5361	-8.1322	404	0.0051267	0.0095375	0.0052701	0.98007	1.3977	8.3861	1.7083	60.536
417	50	4	59	-4.7297	1	0.088828	0.97965	0.074844	60.298	3.1484	-1.2976	-7.8937	490	0.0052343	0.0097376	0.0053807	0.97965	1.3977	8.3861	1.7083	60.298
417	51	4	60	-3.7297	1	0.088828	0.97929	0.074484	60.096	2.9469	-0.096064	-6.6922	387	0.0053268	0.0099098	0.0054758	0.97929	1.3977	8.3861	1.7083	60.096
417	52	4	61	-2.7297	1	0.088828	0.97926	0.074457	60.081	2.9319	0.91885	-5.6772	460	0.0053338	0.0099227	0.005483	0.97926	1.3977	8.3861	1.7083	60.081
417	53	4	56	-7.7297	1	0.088828	0.97952	0.074713	60.224	3.0746	-4.2238	-10.82	752	0.0052679	0.0098002	0.0054153	0.97952	1.3977	8.3861	1.7083	60.224
417	54	4	50	-13.73	1	0.088828	0.97831	0.073511	59.568	2.4187	-9.5679	-16.164	784	0.0055772	0.010375	0.0057332	0.97831	1.3977	8.3861	1.7083	59.568
417	55	4	48	-15.73	1	0.088828	0.97533	0.070526	58.082	0.93281	-10.082	-16.678	468	0.0063446	0.011803	0.0065221	0.97533	1.3977	8.3861	1.7083	58.082
417	56	4	53	-10.73	1	0.088828	0.97175	0.066949	56.516	-0.6329	-3.5163	-10.112	956	0.0072646	0.013515	0.0074678	0.97175	1.3977	8.3861	1.7083	56.516
417	57	2	25	-38.73	0	0.088828	0.014167	-0.89064	8.3861	-48.763	16.614	10.018	2907	0.007615	0.014167	0.007828	0.97039	1.3977	8.3861	1.7083	55.97
417	58	4	53	-10.73	1	0.088828	0.96686	0.062059	55.97	-1.179	-2.9702	-9.5663	441	0.0075873	0.017751	0.0077996	0.96686	1.3977	10.966	1.7083	55.97
417	59	4	51	-12.73	1	0.088828	0.96552	0.060721	55.509	-1.6402	-4.509	-11.105	414	0.0078937	0.018468	0.0081145	0.96552	1.3977	10.966	1.7083	55.509
417	60	4	48	-15.73	1	0.088828	0.96339	0.058589	54.809	-2.3405	-6.8087	-13.405	373	0.0083818	0.019609	0.0086162	0.96339	1.3977	10.966	1.7083	54.809
417	61	4	49	-14.73	1	0.088828	0.95993	0.055128	53.751	-3.3979	-4.7514	-11.347	462	0.0091741	0.021463	0.0094307	0.95993	1.3977	10.966	1.7083	53.751
417	62	4	49	-14.73	1	0.088828	0.95733	0.05253	53.013	-4.1357	-4.0135	-10.61	926	0.009769	0.022855	0.010042	0.95733	1.3977	10.966	1.7083	53.013
417	63	4	54	-9.7297	1	0.088828	0.95501	0.050211	52.39	-4.759	1.6098	-4.9863	500	0.0103	0.024097	0.010588	0.95501	1.3977	10.966	1.7083	52.39
417	64	4	56	-7.7297	1	0.088828	0.95596	0.051155	52.64	-4.509	3.3598	-3.2363	772	0.010084	0.023592	0.010366	0.95596	1.3977	10.966	1.7083	52.64
417	65	4	56	-7.7297	1	0.088828	0.95787	0.053066	53.162	-3.9872	2.838	-3.7581	616	0.0096464	0.022568	0.0099163	0.95787	1.3977	10.966	1.7083	53.162
417	66	4	51	-12.73	1	0.088828	0.95942	0.054618	53.603	-3.5465	-2.6027	-9.1988	660	0.0092911	0.021737	0.009551	0.95942	1.3977	10.966	1.7083	53.603
417	67	4	53	-10.73	1	0.088828	0.958	0.053196	53.199	-3.9507	-0.19851	-6.7946	473	0.0096165	0.022498	0.0098855	0.958	1.3977	10.966	1.7083	53.199
417	68	4	55	-8.7297	1	0.088828	0.95789	0.053086	53.168	-3.9815	1.8323	-4.7638	502	0.0096417	0.022557	0.0099114	0.95789	1.3977	10.966	1.7083	53.168
417	69	4	55	-8.7297	1	0.088828	0.9589	0.054094	53.452	-3.697	1.5478	-5.0483	639	0.009411	0.022017	0.0096742	0.9589	1.3977	10.966	1.7083	53.452
417	70	4	63	-0.72973	1	0.088828	0.95973	0.054927	53.693	-3.4566	9.3074	2.7113	524	0.0092202	0.021571	0.0094781	0.95973	1.3977	10.966	1.7083	53.693
417	71	4	65	1.2703	1	0.088828	0.96441	0.059607	55.138	-2.0112	9.862	3.2659	350	0.0081487	0.019064	0.0083767	0.96441	1.3977	10.966	1.7083	55.138
417	72	4	69	5.2703	1	0.088828	0.9688	0.063992	56.67	-0.47965	12.33	5.7343	506	0.0071446	0.016715	0.0073445	0.9688	1.3977	10.966	1.7083	56.67
417	73	4	65	1.2703	1	0.088828	0.97355	0.068744	58.584	1.4352	6.4156	-0.18054	420	0.0060566	0.01417	0.0062261	0.97355	1.3977	10.966	1.7083	58.584
417	74	4	66	2.2703	1	0.088828	0.97573	0.07093	59.581	2.4316	6.4192	-0.17686	606	0.0055561	0.012999	0.0057115	0.97573	1.3977	10.966	1.7083	59.581
417	75	4	68	4.2703	1	0.088828	0.97774	0.072941	61.73	4.5811	7.4223	0.82625	1944	0.0050957	0.011922	0.0052383	0.97774	1.3977	10.966	1.7083	61.73
417	1	NaN	NaN	0	0	0.091094	0	0	0	0	0	0	0	0	0	0	0	0	0	0	0
417	2	1	30	-38.973	1	0.091094	0.25	-0.66336	0	-62.649	30	23.659	1235	0.25	0.25	0.25	0.25	0	0	0	0
417	3	2	33	-35.973	0	0.091094	0.20949	-0.70387	0	-62.649	33	26.659	368	0.37153	0.20949	0.20949	0.20949	6.2896	0	0	0
417	4	3	83	14.027	0	0.091094	0.17694	-0.73642	0	-62.649	83	76.659	592	0.3138	0.33231	0.17694	0.17694	6.2896	6.9185	0	0
417	5	4	56	-12.973	0	0.091094	0.10492	-0.80845	0	-62.649	56	49.659	440	0.18607	0.19704	0.51198	0.10492	6.2896	6.9185	17.401	0
417	6	3	85	16.027	1	0.091094	0.42637	-0.48699	17.401	-45.247	67.599	61.258	385	0.15495	0.16409	0.42637	0.25459	6.2896	6.9185	17.401	11.741
417	7	3	84	15.027	1	0.091094	0.72994	-0.18342	31.573	-31.075	52.427	46.086	579	0.07295	0.077251	0.72994	0.11986	6.2896	6.9185	31.573	11.741
417	8	3	79	10.027	1	0.091094	0.88033	-0.033032	42.565	-20.084	36.435	30.094	367	0.032326	0.034232	0.88033	0.053112	6.2896	6.9185	42.565	11.741
417	9	3	77	8.027	1	0.091094	0.93652	0.023155	50.203	-12.445	26.797	20.455	410	0.017148	0.018159	0.93652	0.028175	6.2896	6.9185	50.203	11.741
417	10	3	78	9.027	1	0.091094	0.96095	0.04759	55.821	-6.8272	22.179	15.838	317	0.010547	0.011169	0.96095	0.01733	6.2896	6.9185	55.821	11.741
417	11	3	76	7.027	1	0.091094	0.97409	0.060724	60.471	-2.1774	15.529	9.1877	452	0.0069999	0.0074126	0.97409	0.011501	6.2896	6.9185	60.471	11.741
417	12	3	78	9.027	1	0.091094	0.98061	0.067245	63.727	1.0783	14.273	7.9321	434	0.0052383	0.0055472	0.98061	0.0086067	6.2896	6.9185	63.727	11.741
417	13	3	79	10.027	1	0.091094	0.98517	0.071803	66.719	4.0707	12.281	5.9397	474	0.004007	0.0042433	0.98517	0.0065837	6.2896	6.9185	66.719	11.741
417	14	3	74	5.027	1	0.091094	0.98823	0.074868	69.294	6.6453	4.7061	-1.635	777	0.0031791	0.0033666	0.98823	0.0052235	6.2896	6.9185	69.294	11.741
417	15	3	76	7.027	1	0.091094	0.98923	0.075869	70.281	7.632	5.7194	-0.62165	747	0.0029088	0.0030803	0.98923	0.0047793	6.2896	6.9185	70.281	11.741
417	16	3	76	7.027	1	0.091094	0.99034	0.076972	71.48	8.8311	4.5204	-1.8207	929	0.0026107	0.0027647	0.99034	0.0042895	6.2896	6.9185	71.48	11.741
417	17	3	75	6.027	1	0.091094	0.99113	0.077765	72.427	9.7788	2.5727	-3.7684	774	0.0023967	0.0025381	0.99113	0.0039379	6.2896	6.9185	72.427	11.741
417	18	3	78	9.027	1	0.091094	0.99155	0.078186	72.967	10.318	5.0333	-1.3078	882	0.0022828	0.0024174	0.99155	0.0037507	6.2896	6.9185	72.967	11.741
417	19	3	84	15.027	1	0.091094	0.99232	0.078955	74.022	11.373	9.9781	3.637	743	0.0020752	0.0021975	0.99232	0.0034096	6.2896	6.9185	74.022	11.741
417	20	3	80	11.027	1	0.091094	0.99364	0.080279	76.114	13.465	3.8861	-2.455	394	0.0017174	0.0018187	0.99364	0.0028218	6.2896	6.9185	76.114	11.741
417	21	3	75	6.027	1	0.091094	0.99409	0.080731	76.929	14.28	-1.9286	-8.2697	533	0.0015953	0.0016894	0.99409	0.0026211	6.2896	6.9185	76.929	11.741
417	22	3	78	9.027	1	0.091094	0.99387	0.080511	76.524	13.876	1.4757	-4.8654	737	0.0016548	0.0017524	0.99387	0.0027189	6.2896	6.9185	76.524	11.741
417	23	3	74	5.027	1	0.091094	0.99404	0.08068	76.834	14.185	-2.8337	-9.1748	972	0.0016091	0.0017039	0.99404	0.0026438	6.2896	6.9185	76.834	11.741
417	24	3	69	0.027027	1	0.091094	0.99371	0.080351	76.24	13.591	-7.2396	-13.581	578	0.001698	0.0017981	0.99371	0.0027898	6.2896	6.9185	76.24	11.741
417	25	3	68	-0.97297	1	0.091094	0.99279	0.079426	74.722	12.073	-6.7218	-13.063	716	0.0019479	0.0020628	0.99279	0.0032005	6.2896	6.9185	74.722	11.741
417	26	3	67	-1.973	1	0.091094	0.99181	0.078446	73.313	10.664	-6.3125	-12.654	520	0.0022126	0.002343	0.99181	0.0036353	6.2896	6.9185	73.313	11.741
417	27	4	36	-32.973	0	0.091094	0.0040968	-0.90927	11.741	-50.908	24.259	17.918	973	0.0024934	0.0026405	0.99077	0.0040968	6.2896	6.9185	71.989	11.741
417	28	3	66	-2.973	1	0.091094	0.98838	0.07502	71.989	9.3405	-5.9891	-12.33	453	0.0024874	0.0026341	0.98838	0.0064955	6.2896	6.9185	71.989	16.827
417	29	3	65	-3.973	1	0.091094	0.98699	0.073631	70.733	8.0849	-5.7335	-12.075	499	0.0027849	0.0029492	0.98699	0.0072724	6.2896	6.9185	70.733	16.827
417	30	3	68	-0.97297	1	0.091094	0.98551	0.072147	69.531	6.8829	-1.5314	-7.8725	362	0.0031025	0.0032855	0.98551	0.0081017	6.2896	6.9185	69.531	16.827
417	31	3	71	2.027	1	0.091094	0.98509	0.071724	69.21	6.5618	1.7896	-4.5515	380	0.0031932	0.0033815	0.98509	0.0083386	6.2896	6.9185	69.21	16.827
417	32	3	77	8.027	1	0.091094	0.98558	0.072218	69.586	6.937	7.4144	1.0733	656	0.0030875	0.0032696	0.98558	0.0080624	6.2896	6.9185	69.586	16.827
417	33	3	77	8.027	1	0.091094	0.98746	0.074098	71.14	8.4915	5.86	-0.48112	618	0.002685	0.0028433	0.98746	0.0070113	6.2896	6.9185	71.14	16.827
417	34	3	75	6.027	1	0.091094	0.98877	0.07541	72.369	9.72	2.6314	-3.7097	687	0.0024039	0.0025456	0.98877	0.0062773	6.2896	6.9185	72.369	16.827
417	35	3	74	5.027	1	0.091094	0.98932	0.075955	72.92	10.272	1.0797	-5.2614	725	0.0022873	0.0024222	0.98932	0.0059729	6.2896	6.9185	72.92	16.827
417	36	3	74	5.027	1	0.091094	0.98953	0.076171	73.147	10.498	0.85337	-5.4877	677	0.0022411	0.0023733	0.98953	0.0058523	6.2896	6.9185	73.147	16.827
417	37	3	76	7.027	1	0.091094	0.9897	0.076338	73.326	10.677	2.6745	-3.6666	501	0.0022053	0.0023353	0.9897	0.0057586	6.2896	6.9185	73.326	16.827
417	38	3	75	6.027	1	0.091094	0.99021	0.076846	73.886	11.238	1.1138	-5.2273	379	0.0020965	0.0022201	0.99021	0.0054747	6.2896	6.9185	73.886	16.827
417	39	3	76	7.027	1	0.091094	0.99041	0.07705	74.12	11.471	1.8803	-4.4608	626	0.0020528	0.0021739	0.99041	0.0053606	6.2896	6.9185	74.12	16.827
417	40	3	74	5.027	1	0.091094	0.99075	0.077385	74.514	11.865	-0.51395	-6.855	503	0.0019811	0.0020979	0.99075	0.0051732	6.2896	6.9185	74.514	16.827
417	41	3	78	9.027	1	0.091094	0.99066	0.077295	74.406	11.758	3.5938	-2.7473	624	0.0020004	0.0021184	0.99066	0.0052238	6.2896	6.9185	74.406	16.827
417	42	3	80	11.027	1	0.091094	0.99127	0.077909	75.16	12.511	4.8404	-1.5007	534	0.0018689	0.0019791	0.99127	0.0048803	6.2896	6.9185	75.16	16.827
417	43	3	82	13.027	1	0.091094	0.99204	0.078673	76.174	13.526	5.8256	-0.51553	450	0.0017052	0.0018058	0.99204	0.0044528	6.2896	6.9185	76.174	16.827
417	44	3	78	9.027	1	0.091094	0.99287	0.079506	77.396	14.747	0.60422	-5.7369	475	0.0015269	0.001617	0.99287	0.0039873	6.2896	6.9185	77.396	16.827
417	45	3	80	11.027	1	0.091094	0.99295	0.079587	77.522	14.874	2.4775	-3.8635	581	0.0015095	0.0015986	0.99295	0.0039419	6.2896	6.9185	77.522	16.827
417	46	3	78	9.027	1	0.091094	0.99327	0.079911	78.042	15.393	-0.041875	-6.383	584	0.0014403	0.0015252	0.99327	0.003761	6.2896	6.9185	78.042	16.827
417	47	3	75	6.027	1	0.091094	0.99327	0.079905	78.033	15.385	-3.0331	-9.3742	817	0.0014414	0.0015264	0.99327	0.0037639	6.2896	6.9185	78.033	16.827
417	48	3	71	2.027	1	0.091094	0.99287	0.079507	77.397	14.749	-6.3972	-12.738	400	0.0015267	0.0016168	0.99287	0.0039868	6.2896	6.9185	77.397	16.827
417	49	3	67	-1.973	1	0.091094	0.99195	0.078588	76.056	13.407	-9.056	-15.397	628	0.0017235	0.0018252	0.99195	0.0045007	6.2896	6.9185	76.056	16.827
417	50	3	66	-2.973	1	0.091094	0.99045	0.077082	74.157	11.509	-8.1574	-14.499	507	0.0020459	0.0021665	0.99045	0.0053424	6.2896	6.9185	74.157	16.827
417	51	3	60	-8.973	1	0.091094	0.98885	0.07549	72.447	9.7986	-12.447	-18.788	673	0.0023869	0.0025277	0.98885	0.006233	6.2896	6.9185	72.447	16.827
417	52	3	61	-7.973	1	0.091094	0.9859	0.07254	69.838	7.189	-8.8376	-15.179	342	0.0030184	0.0031964	0.9859	0.007882	6.2896	6.9185	69.838	16.827
417	53	3	60	-8.973	1	0.091094	0.98335	0.069992	67.985	5.3362	-7.9848	-14.326	642	0.0035641	0.0037743	0.98335	0.0093071	6.2896	6.9185	67.985	16.827
417	54	3	61	-7.973	1	0.091094	0.98067	0.067303	66.311	3.6622	-5.3108	-11.652	624	0.0041399	0.004384	0.98067	0.010811	6.2896	6.9185	66.311	16.827
417	55	3	58	-10.973	1	0.091094	0.97865	0.065283	65.197	2.5488	-7.1974	-13.538	864	0.0045724	0.004842	0.97865	0.01194	6.2896	6.9185	65.197	16.827
417	56	3	58	-10.973	1	0.091094	0.97558	0.062213	63.688	1.0398	-5.6884	-12.03	492	0.0052297	0.0055381	0.97558	0.013656	6.2896	6.9185	63.688	16.827
417	57	3	55	-13.973	1	0.091094	0.97285	0.059486	62.496	-0.15275	-7.4958	-13.837	575	0.0058135	0.0061563	0.97285	0.015181	6.2896	6.9185	62.496	16.827
417	58	3	53	-15.973	1	0.091094	0.9688	0.055438	60.924	-1.7243	-7.9243	-14.265	521	0.0066804	0.0070743	0.9688	0.017445	6.2896	6.9185	60.924	16.827
417	59	3	53	-15.973	1	0.091094	0.96389	0.050524	59.263	-3.3856	-6.263	-12.604	686	0.0077325	0.0081884	0.96389	0.020192	6.2896	6.9185	59.263	16.827
417	60	3	53	-15.973	1	0.091094	0.95948	0.046122	57.95	-4.6987	-4.9499	-11.291	614	0.0086751	0.0091867	0.95948	0.022654	6.2896	6.9185	57.95	16.827
417	61	3	53	-15.973	1	0.091094	0.95565	0.042283	56.912	-5.7364	-3.9122	-10.253	778	0.0094971	0.010057	0.95565	0.0248	6.2896	6.9185	56.912	16.827
417	62	3	59	-9.973	1	0.091094	0.95237	0.039006	56.092	-6.5566	2.908	-3.4331	555	0.010199	0.0108	0.95237	0.026632	6.2896	6.9185	56.092	16.827
417	63	3	62	-6.973	1	0.091094	0.95483	0.041463	56.702	-5.9469	5.2984	-1.0427	965	0.0096727	0.010243	0.95483	0.025258	6.2896	6.9185	56.702	16.827
417	64	3	66	-2.973	1	0.091094	0.959	0.045632	57.812	-4.8361	8.1875	1.8464	607	0.00878	0.0092977	0.959	0.022927	6.2896	6.9185	57.812	16.827
417	65	3	68	-0.97297	1	0.091094	0.96472	0.051358	59.529	-3.1196	8.471	2.1299	841	0.0075539	0.0079993	0.96472	0.019726	6.2896	6.9185	59.529	16.827
417	66	3	67	-1.973	1	0.091094	0.96983	0.056469	61.305	-1.3436	5.695	-0.64605	524	0.0064596	0.0068405	0.96983	0.016868	6.2896	6.9185	61.305	16.827
417	67	3	67	-1.973	1	0.091094	0.97286	0.059494	62.499	-0.14964	4.5011	-1.84	596	0.0058119	0.0061547	0.97286	0.015177	6.2896	6.9185	62.499	16.827
417	68	3	63	-5.973	1	0.091094	0.97504	0.061674	63.443	0.79402	-0.44259	-6.7837	434	0.0053452	0.0056603	0.97504	0.013958	6.2896	6.9185	63.443	16.827
417	69	3	61	-7.973	1	0.091094	0.97483	0.061467	63.35	0.70123	-2.3498	-8.6909	455	0.0053894	0.0057072	0.97483	0.014073	6.2896	6.9185	63.35	16.827
417	70	3	66	-2.973	1	0.091094	0.97371	0.060342	62.857	0.20859	3.1428	-3.1983	432	0.0056302	0.0059622	0.97371	0.014702	6.2896	6.9185	62.857	16.827
417	71	3	67	-1.973	1	0.091094	0.9752	0.061836	63.516	0.86749	3.4839	-2.8572	420	0.0053104	0.0056235	0.9752	0.013867	6.2896	6.9185	63.516	16.827
417	72	3	68	-0.97297	1	0.091094	0.97676	0.063396	64.246	1.5979	3.7535	-2.5876	913	0.0049765	0.0052699	0.97676	0.012995	6.2896	6.9185	64.246	16.827
417	73	3	70	1.027	1	0.091094	0.97833	0.064968	65.033	2.3848	4.9666	-1.3745	1009	0.0046397	0.0049133	0.97833	0.012116	6.2896	6.9185	65.033	16.827
417	74	3	71	2.027	1	0.091094	0.98025	0.066891	66.075	3.4261	4.9253	-1.4158	1137	0.0042281	0.0044775	0.98025	0.011041	6.2896	6.9185	66.075	16.827
417	75	3	73	4.027	1	0.091094	0.98199	0.068631	68.343	5.6941	5.8927	-0.44837	661	0.0038554	0.0040827	0.98199	0.010068	6.2896	6.9185	68.343	16.827
418	1	4	63	-6.5833	0	214.68	0.25	-0.25592	0	-0.012101	63	-6.5712	1995	0.25	0.25	0.25	0.25	0	0	0	0
418	2	3	67	-2.5833	0	214.68	0.24047	-0.26545	0	-0.012101	67	-2.5712	467	0.24047	0.24047	0.24047	0.27859	0	0	0	0.00068551
418	3	2	95	25.417	0	214.68	0.23106	-0.27486	0	-0.012101	95	25.429	342	0.23106	0.23106	0.2702	0.26769	0	0	0.00072904	0.00068551
418	4	1	14	-55.583	0	214.68	0.21851	-0.28741	0	-0.012101	14	-55.571	525	0.21851	0.2728	0.25553	0.25315	0	0.0010337	0.00072904	0.00068551
418	5	NaN	NaN	0	0	214.68	0	0	0	0	0	0	0	0	0	0	0	0	0	0	0
418	6	NaN	NaN	0	0	214.68	0	0	0	0	0	0	0	0	0	0	0	0	0	0	0
418	7	1	19	-50.583	0	214.68	0.22415	-0.28177	0.00015234	-0.011948	19	-50.571	452	0.22415	0.27084	0.25369	0.25133	0.00015234	0.0010337	0.00072904	0.00068551
418	8	4	66	-3.5833	0	214.68	0.2488	-0.25712	0.00068551	-0.011415	65.999	-3.5719	1173	0.23196	0.26811	0.25113	0.2488	0.00035908	0.0010337	0.00072904	0.00068551
418	9	3	69	-0.58333	0	214.68	0.24113	-0.26478	0.00072904	-0.011372	68.999	-0.57197	1278	0.22272	0.25743	0.24113	0.27871	0.00035908	0.0010337	0.00072904	0.0014037
418	10	4	74	4.4167	0	214.68	0.26743	-0.23848	0.0014037	-0.010697	73.999	4.4274	1024	0.21371	0.24701	0.27184	0.26743	0.00035908	0.0010337	0.0014798	0.0014037
418	11	2	89	19.417	0	214.68	0.23515	-0.27077	0.0010337	-0.011067	88.999	19.428	1016	0.20344	0.23515	0.25878	0.30262	0.00035908	0.0010337	0.0014798	0.0022089
418	12	3	66	-3.5833	0	214.68	0.24545	-0.26047	0.0014798	-0.010621	65.999	-3.5727	1331	0.19296	0.27457	0.24545	0.28703	0.00035908	0.0020021	0.0014798	0.0022089
418	13	1	18	-51.583	0	214.68	0.18537	-0.32054	0.00035908	-0.011742	18	-51.572	700	0.18537	0.26378	0.2751	0.27575	0.00035908	0.0020021	0.002198	0.0022089
418	14	4	65	-4.5833	1	214.68	0.27357	-0.23235	0.0022089	-0.0098918	64.998	-4.5735	539	0.19181	0.26169	0.27293	0.27357	0.00055493	0.0020021	0.002198	0.0022089
418	15	3	65	-4.5833	0	214.68	0.26121	-0.2447	0.002198	-0.0099026	64.998	-4.5734	1330	0.18357	0.25046	0.26121	0.30475	0.00055493	0.0020021	0.002198	0.0029161
418	16	2	72	2.4167	0	214.68	0.24017	-0.26575	0.0020021	-0.010098	71.998	2.4268	429	0.17603	0.24017	0.29156	0.29224	0.00055493	0.0020021	0.0029052	0.0029161
418	17	4	58	-11.583	1	214.68	0.27992	-0.22599	0.0029161	-0.0091845	57.997	-11.574	1789	0.16862	0.27219	0.27927	0.27992	0.00055493	0.0027855	0.0029052	0.0029161
418	18	3	66	-3.5833	0	214.68	0.26837	-0.23755	0.0029052	-0.0091954	65.997	-3.5741	383	0.16204	0.26156	0.26837	0.30803	0.00055493	0.0027855	0.0029052	0.0035472
418	19	2	74	4.4167	0	214.68	0.25037	-0.25555	0.0027855	-0.0093151	73.997	4.426	409	0.1551	0.25037	0.2997	0.29484	0.00055493	0.0027855	0.0036233	0.0035472
418	20	3	71	1.4167	1	214.68	0.28618	-0.21974	0.0036233	-0.0084773	70.996	1.4251	627	0.1481	0.28418	0.28618	0.28154	0.00055493	0.0035907	0.0036233	0.0035472
418	21	4	55	-14.583	0	214.68	0.26772	-0.2382	0.0035472	-0.0085534	54.996	-14.575	619	0.14083	0.27023	0.32122	0.26772	0.00055493	0.0035907	0.0043959	0.0035472
418	22	2	75	5.4167	0	214.68	0.26066	-0.24525	0.0035907	-0.0085099	74.996	5.4252	494	0.13585	0.26066	0.30985	0.29364	0.00055493	0.0035907	0.0043959	0.0041456
418	23	1	23	-46.583	0	214.68	0.12939	-0.37653	0.00055493	-0.011546	22.999	-46.572	1728	0.12939	0.29581	0.29512	0.27968	0.00055493	0.0044068	0.0043959	0.0041456
418	24	3	71	1.4167	0	214.68	0.29303	-0.21289	0.0043959	-0.0077047	70.996	1.4244	830	0.13556	0.29371	0.29303	0.2777	0.00080519	0.0044068	0.0043959	0.0041456
418	25	2	72	2.4167	0	214.68	0.27897	-0.22695	0.0044068	-0.0076938	71.996	2.4244	389	0.12876	0.27897	0.32852	0.26376	0.00080519	0.0044068	0.0051684	0.0041456
418	26	4	60	-9.5833	0	214.68	0.25094	-0.25498	0.0041456	-0.007955	59.996	-9.5754	988	0.1225	0.31402	0.31255	0.25094	0.00080519	0.0051902	0.0051684	0.0041456
418	27	1	34	-35.583	0	214.68	0.11804	-0.38788	0.00080519	-0.011295	33.999	-35.572	601	0.11804	0.30259	0.30118	0.27819	0.00080519	0.0051902	0.0051684	0.0047984
418	28	2	75	5.4167	1	214.68	0.29967	-0.20625	0.0051902	-0.0069104	74.995	5.4236	782	0.12656	0.29967	0.29827	0.2755	0.0011751	0.0051902	0.0051684	0.0047984
418	29	3	64	-5.5833	0	214.68	0.28209	-0.22383	0.0051684	-0.0069322	63.995	-5.5764	485	0.1197	0.33767	0.28209	0.26055	0.0011751	0.0060062	0.0051684	0.0047984
418	30	4	65	-4.5833	0	214.68	0.24921	-0.2567	0.0047984	-0.0073022	64.995	-4.576	1192	0.11449	0.32298	0.31332	0.24921	0.0011751	0.0060062	0.0058647	0.0047984
418	31	2	70	0.41667	1	214.68	0.3103	-0.19562	0.0060062	-0.0060944	69.994	0.42275	985	0.10999	0.3103	0.30102	0.27869	0.0011751	0.0060062	0.0058647	0.0055057
418	32	1	35	-34.583	0	214.68	0.10425	-0.40167	0.0011751	-0.010925	34.999	-34.572	419	0.10425	0.34633	0.28529	0.26413	0.0011751	0.0067678	0.0058647	0.0055057
418	33	2	79	9.4167	1	214.68	0.34328	-0.16264	0.0067678	-0.0053328	78.993	9.422	420	0.11213	0.34328	0.28278	0.2618	0.001556	0.0067678	0.0058647	0.0055057
418	34	3	66	-3.5833	0	214.68	0.26439	-0.24153	0.0058647	-0.0062359	65.994	-3.5771	526	0.10484	0.38599	0.26439	0.24478	0.001556	0.0076273	0.0058647	0.0055057
